device_id,timestamp,ax,ay,az,azimuth,pitch,roll,lat,lon,speed
bike_v1,1.76351E+12,0.65122,4.48434,8.3007,-99.00523,-28.30609,4.48589,22.60114,88.43176,0
bike_v1,1.76351E+12,1.72143,4.73573,9.11233,-111.57635,-27.05219,10.6978,22.60114,88.43176,0
bike_v1,1.76351E+12,1.9417,4.63278,8.61673,-114.64699,-27.67691,12.69895,22.60114,88.43176,0
bike_v1,1.76351E+12,1.38145,4.53462,8.15944,-108.49942,-28.72067,9.60948,22.60114,88.43176,0
bike_v1,1.76351E+12,1.403,4.4173,9.36133,-108.81506,-25.01636,8.5236,22.60114,88.43176,0
bike_v1,1.76351E+12,1.44131,4.84108,8.74841,-108.09312,-28.6348,9.35549,22.60114,88.43176,0
bike_v1,1.76351E+12,1.40779,4.7884,8.31267,-107.99354,-29.59441,9.61211,22.60114,88.43176,0
bike_v1,1.76351E+12,1.38385,4.65672,7.66384,-108.33978,-30.87743,10.23552,22.60114,88.43176,0
bike_v1,1.76351E+12,1.26414,4.51546,9.03332,-106.8291,-26.33742,7.96633,22.60114,88.43176,0
bike_v1,1.76351E+12,1.30963,4.83868,8.37252,-106.65059,-29.72554,8.89016,22.60114,88.43176,0
bike_v1,1.76351E+12,1.34794,3.97677,9.08121,-109.8236,-23.42062,8.44284,22.60114,88.43176,0
bike_v1,1.76351E+12,1.23541,4.66869,8.10198,-106.28967,-29.66829,8.66981,22.60114,88.43176,0
bike_v1,1.76351E+12,1.36469,4.39097,9.74679,-108.33997,-24.04411,7.97044,22.60114,88.43176,0
bike_v1,1.76351E+12,1.38385,4.64236,9.41879,-107.82381,-25.99605,8.35834,22.60114,88.43176,0
bike_v1,1.76351E+12,1.36709,4.88417,8.58082,-107.14615,-29.34065,9.05224,22.60114,88.43176,0
bike_v1,1.76351E+12,1.20189,4.56335,7.94157,-106.20979,-29.60291,8.60593,22.60114,88.43176,0
bike_v1,1.76351E+12,1.64482,4.56335,7.56328,-111.8989,-30.52252,12.26929,22.60114,88.43176,0
bike_v1,1.76351E+12,0.99838,4.89614,8.95192,-102.57548,-28.52707,6.36374,22.60114,88.43176,0
bike_v1,1.76351E+12,1.05824,4.89375,8.65743,-103.38071,-29.29633,6.96895,22.60114,88.43176,0
bike_v1,1.76351E+12,1.61848,4.87938,7.90087,-110.37274,-31.17445,11.57679,22.60114,88.43176,0
bike_v1,1.76351E+12,1.46286,4.48913,8.54012,-109.53915,-27.38893,9.72,22.60114,88.43176,0
bike_v1,1.76351E+12,1.08936,4.98473,8.81784,-103.51815,-29.29395,7.04267,22.60114,88.43176,0
bike_v1,1.76351E+12,1.53708,4.84108,8.73165,-109.22083,-28.63599,9.98378,22.60114,88.43176,0
bike_v1,1.76351E+12,1.42694,4.82432,7.9703,-108.24703,-30.78706,10.15028,22.60114,88.43176,0
bike_v1,1.76351E+12,1.26174,4.50828,8.99262,-106.83072,-26.40294,7.98696,22.60114,88.43176,0
bike_v1,1.76351E+12,1.34554,4.65433,8.80348,-107.48119,-27.59259,8.68995,22.60114,88.43176,0
bike_v1,1.76351E+12,1.67594,3.94804,9.44752,-114.21671,-22.36557,10.05933,22.60114,88.43176,0
bike_v1,1.76351E+12,1.64242,4.89854,8.12113,-110.49239,-30.59219,11.43332,22.60114,88.43176,0
bike_v1,1.76351E+12,1.65439,4.41251,9.27993,-111.94775,-25.08475,10.1083,22.60114,88.43176,0
bike_v1,1.76351E+12,1.99916,4.57532,9.02375,-115.37549,-26.3367,12.49178,22.60114,88.43176,0
bike_v1,1.76351E+12,1.65918,4.89854,8.4252,-110.55966,-29.70297,11.14075,22.60114,88.43176,0
bike_v1,1.76351E+12,1.2809,4.06296,7.74764,-108.94012,-27.35657,9.38765,22.60114,88.43176,0
bike_v1,1.76351E+12,1.62087,4.01029,8.11395,-113.59965,-25.85808,11.29693,22.60114,88.43176,0
bike_v1,1.76351E+12,1.66158,4.66869,8.65504,-111.2729,-27.9122,10.8673,22.60114,88.43176,0
bike_v1,1.76351E+12,1.10373,4.55856,8.86573,-104.70917,-27.03244,7.09645,22.60114,88.43176,0
bike_v1,1.76351E+12,1.3623,4.86741,8.33182,-107.2179,-29.96515,9.28602,22.60114,88.43176,0
bike_v1,1.76351E+12,1.08218,4.20422,9.81144,-105.26047,-23.07007,6.29415,22.60114,88.43176,0
bike_v1,1.76351E+12,1.0319,4.90333,8.60237,-103.05155,-29.50726,6.84026,22.60114,88.43176,0
bike_v1,1.76351E+12,1.41497,4.36463,9.40682,-109.14063,-24.64679,8.5543,22.60114,88.43176,0
bike_v1,1.76351E+12,1.72861,4.46758,9.11233,-112.66715,-25.71956,10.7414,22.60114,88.43176,0
bike_v1,1.76351E+12,1.60172,4.6256,7.79791,-111.05036,-30.15886,11.60732,22.60114,88.43176,0
bike_v1,1.76351E+12,1.28329,3.73495,9.41879,-109.88511,-21.4505,7.75867,22.60114,88.43176,0
bike_v1,1.76351E+12,1.66397,4.31914,7.27837,-113.19752,-30.04919,12.87756,22.60114,88.43176,0
bike_v1,1.76351E+12,1.61369,3.76368,8.16662,-114.67567,-24.32867,11.17743,22.60114,88.43176,0
bike_v1,1.76351E+12,1.52511,4.14676,8.8777,-111.52123,-24.71919,9.74773,22.60114,88.43176,0
bike_v1,1.76351E+12,1.4437,3.97677,9.06445,-111.12239,-23.42519,9.04955,22.60114,88.43176,0
bike_v1,1.76351E+12,1.2785,5.12599,8.82503,-105.41699,-29.89224,8.24323,22.60114,88.43176,0
bike_v1,1.76351E+12,1.30005,4.82432,9.69891,-106.22034,-26.24326,7.63448,22.60114,88.43176,0
bike_v1,1.76351E+12,1.63763,4.08211,9.53611,-113.07355,-22.87456,9.74435,22.60114,88.43176,0
bike_v1,1.76351E+12,1.26414,4.03662,6.65828,-109.25298,-30.77873,10.75021,22.60114,88.43176,0
bike_v1,1.76351E+12,1.10373,5.01346,7.35259,-104.0983,-33.99208,8.53715,22.60114,88.43176,0
bike_v1,1.76351E+12,1.53468,4.60644,9.02135,-109.86599,-26.71994,9.65455,22.60114,88.43176,0
bike_v1,1.76351E+12,1.34075,4.40773,9.4547,-108.04324,-24.77692,8.07119,22.60114,88.43176,0
bike_v1,1.76351E+12,1.58257,4.37181,8.45632,-111.4795,-26.9381,10.60006,22.60114,88.43176,0
bike_v1,1.76351E+12,1.41018,4.26647,8.81545,-109.58598,-25.54314,9.08846,22.60114,88.43176,0
bike_v1,1.76351E+12,1.72622,4.3359,9.14585,-113.16611,-24.97885,10.68847,22.60114,88.43176,0
bike_v1,1.76351E+12,1.66636,4.44124,9.40442,-111.94468,-24.93877,10.04792,22.60114,88.43176,0
bike_v1,1.76351E+12,1.78368,4.97036,8.57124,-111.67045,-29.58469,11.75551,22.60114,88.43176,0
bike_v1,1.76351E+12,1.45089,4.82192,8.24563,-108.43453,-29.93924,9.97951,22.60114,88.43176,0
bike_v1,1.76351E+12,1.6113,5.0781,9.65342,-109.06274,-27.42314,9.47615,22.60114,88.43176,0
bike_v1,1.76351E+12,1.47483,4.52025,9.06445,-109.42425,-26.20673,9.24131,22.60114,88.43176,0
bike_v1,1.76351E+12,1.652,5.08768,8.18099,-110.00007,-31.36592,11.4163,22.60114,88.43176,0
bike_v1,1.76351E+12,1.20189,4.93206,7.9703,-105.24638,-31.46191,8.57537,22.60114,88.43176,0
bike_v1,1.76351E+12,1.49877,4.86741,8.04452,-108.94554,-30.74521,10.55375,22.60114,88.43176,0
bike_v1,1.76351E+12,1.22583,4.55856,7.4747,-106.70139,-31.04062,9.31346,22.60114,88.43176,0
bike_v1,1.76351E+12,1.21386,4.34787,8.42998,-106.85582,-27.04419,8.19388,22.60114,88.43176,0
bike_v1,1.76351E+12,1.39343,4.18746,9.24401,-109.55814,-24.12909,8.57212,22.60114,88.43176,0
bike_v1,1.76351E+12,1.14443,4.46758,9.25838,-105.39583,-25.58975,7.04659,22.60114,88.43176,0
bike_v1,1.76351E+12,1.04866,4.7477,9.10275,-103.49163,-27.39052,6.57165,22.60114,88.43176,0
bike_v1,1.76351E+12,0.84036,4.5849,7.71172,-101.49388,-30.58466,6.21912,22.60114,88.43176,0
bike_v1,1.76351E+12,0.67516,4.67109,8.20732,-99.03873,-29.56281,4.70277,22.60114,88.43176,0
bike_v1,1.76351E+12,0.58179,4.70461,8.69335,-97.68671,-28.36751,3.82874,22.60114,88.43176,0
bike_v1,1.76351E+12,0.45011,4.96797,9.13148,-95.65097,-28.51915,2.82194,22.60114,88.43176,0
bike_v1,1.76351E+12,0.3304,5.01825,9.01656,-94.12735,-29.08217,2.09859,22.60114,88.43176,0
bike_v1,1.76351E+12,0.21069,4.6256,8.80827,-92.83202,-27.69914,1.37023,22.60114,88.43176,0
bike_v1,1.76351E+12,0.14844,4.44603,8.43238,-92.07784,-27.7971,1.00851,22.60114,88.43176,0
bike_v1,1.76351E+12,0.01197,4.62799,8.74123,-90.16115,-27.89868,0.07847,22.60114,88.43176,0
bike_v1,1.76351E+12,-0.17717,4.5849,8.04931,-87.56568,-29.65993,-1.26092,22.60114,88.43176,0
bike_v1,1.76351E+12,-0.35434,5.13077,8.67659,-85.62633,-30.57642,-2.33859,22.60114,88.43176,0
bike_v1,1.76351E+12,-0.40701,5.16669,9.14346,-85.05276,-29.44518,-2.5488,22.60114,88.43176,0
bike_v1,1.76351E+12,-0.38068,5.15711,8.79869,-85.3338,-30.35216,-2.47737,22.60114,88.43176,0
bike_v1,1.76351E+12,-0.34237,4.84586,8.20253,-85.52676,-30.55176,-2.39012,22.60114,88.43176,0
bike_v1,1.76351E+12,-0.44053,4.60884,7.8458,-83.9638,-30.39178,-3.21372,22.60114,88.43176,0
bike_v1,1.76351E+12,-0.36631,4.53222,8.41083,-84.96332,-28.29559,-2.4938,22.60114,88.43176,0
bike_v1,1.76351E+12,0.09098,4.9967,8.33661,-91.15788,-30.93564,0.62526,22.60114,88.43176,0
bike_v1,1.76351E+12,0.03831,4.92248,9.55047,-90.48289,-27.26718,0.22981,22.60114,88.43176,0
bike_v1,1.76351E+12,0.2059,4.96797,8.9208,-92.60094,-29.10684,1.32221,22.60114,88.43176,0
bike_v1,1.76351E+12,0.11013,5.29597,8.15465,-91.34323,-32.99901,0.77377,22.60114,88.43176,0
bike_v1,1.76351E+12,-0.04788,5.44681,8.64307,-89.43552,-32.21848,-0.31742,22.60114,88.43176,0
bike_v1,1.76351E+12,-0.08619,4.2114,8.83221,-88.74352,-25.49182,-0.55912,22.60114,88.43176,0
bike_v1,1.76351E+12,0.38307,3.93128,8.98304,-95.9031,-23.61667,2.44184,22.60114,88.43176,0
bike_v1,1.76351E+12,0.29688,4.39097,9.1243,-94.14958,-25.68681,1.8636,22.60114,88.43176,0
bike_v1,1.76351E+12,-0.18435,5.26964,8.93037,-87.78233,-30.53868,-1.18261,22.60114,88.43176,0
bike_v1,1.76351E+12,-0.0407,4.01268,9.35654,-89.38483,-23.21255,-0.24924,22.60114,88.43176,0
bike_v1,1.76351E+12,0.32322,4.46758,9.88805,-94.40517,-24.30273,1.8722,22.60114,88.43176,0
bike_v1,1.76351E+12,-0.22266,5.62398,9.17458,-87.47293,-31.50061,-1.39026,22.60114,88.43176,0
bike_v1,1.76351E+12,-0.08859,3.88579,9.59357,-88.62551,-22.04913,-0.52905,22.60114,88.43176,0
bike_v1,1.76351E+12,-0.01676,5.16669,9.06684,-89.79552,-29.67636,-0.10591,22.60114,88.43176,0
bike_v1,1.76351E+12,-0.34237,3.67989,7.06768,-84.23645,-27.47687,-2.77334,22.60114,88.43176,0
bike_v1,1.76351E+12,-0.44532,5.03501,8.9591,-84.45393,-29.30576,-2.8456,22.60114,88.43176,0
bike_v1,1.76351E+12,-0.17238,5.31034,8.85136,-87.9359,-30.95668,-1.11571,22.60114,88.43176,0
bike_v1,1.76351E+12,-0.34477,5.60483,9.96706,-86.1366,-29.33594,-1.9811,22.60114,88.43176,0
bike_v1,1.76351E+12,-0.39025,5.20739,8.57124,-85.23197,-31.25412,-2.60692,22.60114,88.43176,0
bike_v1,1.76351E+12,-0.52194,4.24013,6.29914,-82.03549,-33.85486,-4.73661,22.60114,88.43176,0
bike_v1,1.76351E+12,-0.48602,4.956,8.28873,-83.78847,-30.83276,-3.35579,22.60114,88.43176,0
bike_v1,1.76351E+12,-0.7015,6.05254,8.73884,-82.44853,-34.6205,-4.58952,22.60114,88.43176,0
bike_v1,1.76351E+12,-0.67995,5.84903,8.22408,-82.38004,-35.32861,-4.72637,22.60114,88.43176,0
bike_v1,1.76351E+12,-0.58419,5.43723,8.43956,-83.10176,-32.72955,-3.95969,22.60114,88.43176,0
bike_v1,1.76351E+12,-0.13886,5.08289,8.03494,-88.24496,-32.31351,-0.99011,22.60114,88.43176,0
bike_v1,1.76351E+12,-0.46208,5.72932,8.02058,-84.6927,-35.49442,-3.29728,22.60114,88.43176,0
bike_v1,1.76351E+12,-0.4956,6.2776,8.4228,-84.7504,-36.6501,-3.36742,22.60114,88.43176,0
bike_v1,1.76351E+12,0.17238,4.39815,9.24162,-92.4047,-25.44623,1.06861,22.60114,88.43176,0
bike_v1,1.76351E+12,-0.10056,5.08768,8.47787,-88.74286,-30.96674,-0.67956,22.60114,88.43176,0
bike_v1,1.76351E+12,-0.35195,6.46195,8.95192,-86.40171,-35.80267,-2.25144,22.60114,88.43176,0
bike_v1,1.76351E+12,-0.18196,5.25288,8.4635,-87.7834,-31.8199,-1.23163,22.60114,88.43176,0
bike_v1,1.76351E+12,-0.22745,4.6663,7.82665,-86.90574,-30.79305,-1.6646,22.60114,88.43176,0
bike_v1,1.76351E+12,-0.53391,6.24887,10.28549,-84.56757,-31.24623,-2.97149,22.60114,88.43176,0
bike_v1,1.76351E+12,-0.54348,4.22816,6.49786,-81.74656,-32.96082,-4.78111,22.60114,88.43176,0
bike_v1,1.76351E+12,-0.60573,4.78601,8.23845,-82.04353,-30.08679,-4.20511,22.60114,88.43176,0
bike_v1,1.76351E+12,-0.91219,5.94959,8.01579,-79.88922,-36.40782,-6.49229,22.60114,88.43176,0
bike_v1,1.76351E+12,0.08859,3.98395,7.30471,-91.39137,-28.60606,0.6948,22.60114,88.43176,0
bike_v1,1.76351E+12,-0.05507,5.66468,8.7125,-89.37186,-33.03055,-0.36213,22.60114,88.43176,0
bike_v1,1.76351E+12,0.37828,3.07655,7.36217,-97.39836,-22.65253,2.94139,22.60114,88.43176,0
bike_v1,1.76351E+12,0.11253,4.9129,8.83939,-91.43755,-29.06317,0.72935,22.60114,88.43176,0
bike_v1,1.76351E+12,0.00958,4.05338,9.87608,-90.14265,-22.31442,0.05556,22.60114,88.43176,0
bike_v1,1.76351E+12,0.11253,5.09007,7.81228,-91.42888,-33.08344,0.82523,22.60114,88.43176,0
bike_v1,1.76351E+12,0.40701,4.18985,9.20571,-95.91119,-24.45093,2.53158,22.60114,88.43176,0
bike_v1,1.76351E+12,-0.13168,5.62877,8.39168,-88.47861,-33.84871,-0.899,22.60114,88.43176,0
bike_v1,1.76351E+12,0.63686,3.70144,9.62708,-100.22181,-20.98895,3.78476,22.60114,88.43176,0
bike_v1,1.76351E+12,-0.00958,5.88016,8.10437,-89.89214,-35.96289,-0.06771,22.60114,88.43176,0
bike_v1,1.76351E+12,0.63686,3.54821,8.19535,-100.77566,-23.34755,4.4435,22.60114,88.43176,0
bike_v1,1.76351E+12,0.0838,5.51145,8.89446,-90.97298,-31.78329,0.53978,22.60114,88.43176,0
bike_v1,1.76351E+12,0.10534,5.14514,8.1331,-91.31548,-32.31598,0.74209,22.60114,88.43176,0
bike_v1,1.76351E+12,0.33519,3.96001,9.05008,-95.13185,-23.61813,2.1211,22.60114,88.43176,0
bike_v1,1.76351E+12,0.06704,5.37977,8.97586,-90.79248,-30.93608,0.42791,22.60114,88.43176,0
bike_v1,1.76351E+12,0.00718,4.06057,8.60955,-90.10846,-25.2502,0.0478,22.60114,88.43176,0
bike_v1,1.76351E+12,-0.249,5.6168,7.63272,-87.05621,-36.33423,-1.86846,22.60114,88.43176,0
bike_v1,1.76351E+12,0.25618,4.49392,8.42759,-93.55099,-28.05728,1.74113,22.60114,88.43176,0
bike_v1,1.76351E+12,0.09816,3.91691,8.93037,-91.52334,-23.68127,0.62977,22.60114,88.43176,0
bike_v1,1.76351E+12,-0.48123,5.34386,8.07085,-84.17747,-33.46248,-3.41229,22.60114,88.43176,0
bike_v1,1.76351E+12,-0.25857,4.61363,7.94396,-86.45974,-30.13362,-1.8643,22.60114,88.43176,0
bike_v1,1.76351E+12,-0.35674,3.53624,8.12592,-83.89381,-23.49753,-2.51373,22.60114,88.43176,0
bike_v1,1.76351E+12,-0.60094,5.15711,8.07804,-82.53802,-32.48296,-4.25453,22.60114,88.43176,0
bike_v1,1.76351E+12,0.07661,3.51708,8.57842,-91.31493,-22.29242,0.5117,22.60114,88.43176,0
bike_v1,1.76351E+12,-0.78051,4.07014,8.4252,-78.35812,-25.68904,-5.29277,22.60114,88.43176,0
bike_v1,1.76351E+12,-0.97683,5.25527,8.6287,-78.29746,-31.18149,-6.45882,22.60114,88.43176,0
bike_v1,1.76351E+12,0.02155,3.44765,8.26,-90.378,-22.65517,0.14947,22.60114,88.43176,0
bike_v1,1.76351E+12,-0.73981,4.52744,8.51618,-79.91224,-27.90718,-4.96488,22.60114,88.43176,0
bike_v1,1.76351E+12,-0.4525,4.4197,8.85855,-83.69969,-26.48566,-2.92419,22.60114,88.43176,0
bike_v1,1.76351E+12,-0.29209,4.12282,9.03572,-85.68086,-24.51495,-1.85152,22.60114,88.43176,0
bike_v1,1.76351E+12,0.56264,4.80277,8.23127,-97.37651,-30.20456,3.9103,22.60114,88.43176,0
bike_v1,1.76351E+12,0.44532,5.34386,8.32703,-95.35579,-32.65308,3.06121,22.60114,88.43176,0
bike_v1,1.76351E+12,0.14126,5.13077,8.99741,-91.7352,-29.69092,0.89946,22.60114,88.43176,0
bike_v1,1.76351E+12,0.23942,5.13317,8.61673,-92.96066,-30.77342,1.59158,22.60114,88.43176,0
bike_v1,1.76351E+12,0.50518,4.79319,8.56406,-96.59638,-29.19278,3.37585,22.60114,88.43176,0
bike_v1,1.76351E+12,0.21308,5.10444,7.79073,-92.69993,-33.22273,1.5667,22.60114,88.43176,0
bike_v1,1.76351E+12,0.1652,4.80277,8.94713,-92.14645,-28.22258,1.05779,22.60114,88.43176,0
bike_v1,1.76351E+12,0.30646,4.85784,8.55688,-93.9682,-29.5683,2.05113,22.60114,88.43176,0
bike_v1,1.76351E+12,0.15562,4.81474,8.45632,-92.03638,-29.65154,1.0543,22.60114,88.43176,0
bike_v1,1.76351E+12,0.12929,5.14993,7.87932,-91.62358,-33.16513,0.94005,22.60114,88.43176,0
bike_v1,1.76351E+12,0.02394,4.32393,9.10994,-90.33979,-25.39075,0.15058,22.60114,88.43176,0
bike_v1,1.76351E+12,-0.06464,4.61602,7.84819,-89.11243,-30.46164,-0.47192,22.60114,88.43176,0
bike_v1,1.76351E+12,0.20111,4.53222,8.22408,-92.77972,-28.85155,1.40084,22.60114,88.43176,0
bike_v1,1.76351E+12,0.21308,3.84269,9.03572,-93.35661,-23.03326,1.35092,22.60114,88.43176,0
bike_v1,1.76351E+12,0.09337,3.48596,8.61194,-91.61475,-22.03604,0.6212,22.60114,88.43176,0
bike_v1,1.76351E+12,-0.13408,3.84748,6.54814,-87.79265,-30.43192,-1.17299,22.60114,88.43176,0
bike_v1,1.76351E+12,0.19632,4.04141,8.03255,-93.00156,-26.70145,1.40009,22.60114,88.43176,0
bike_v1,1.76351E+12,-0.17957,5.05416,7.74045,-87.70335,-33.13564,-1.32892,22.60114,88.43176,0
bike_v1,1.76351E+12,-0.50996,5.00867,8.23845,-83.53313,-31.24944,-3.54212,22.60114,88.43176,0
bike_v1,1.76351E+12,-0.19393,3.89537,6.96473,-86.87443,-29.20877,-1.59497,22.60114,88.43176,0
bike_v1,1.76351E+12,-0.05028,4.7908,8.75081,-89.34281,-28.69894,-0.32919,22.60114,88.43176,0
bike_v1,1.76351E+12,-0.06704,4.61602,7.95593,-89.08177,-30.12137,-0.48277,22.60114,88.43176,0
bike_v1,1.76351E+12,-0.26815,4.03423,7.28795,-85.83701,-28.95021,-2.10717,22.60114,88.43176,0
bike_v1,1.76351E+12,-0.18435,5.49948,8.18578,-87.81973,-33.88782,-1.29015,22.60114,88.43176,0
bike_v1,1.76351E+12,-0.06464,5.32231,8.41801,-89.21965,-32.30246,-0.43998,22.60114,88.43176,0
bike_v1,1.76351E+12,-0.01915,3.84509,7.57765,-89.69158,-26.9043,-0.14482,22.60114,88.43176,0
bike_v1,1.76351E+12,-0.04788,4.63996,9.77074,-89.36668,-25.40201,-0.28079,22.60114,88.43176,0
bike_v1,1.76351E+12,-0.91937,5.70538,7.39808,-79.28228,-37.42722,-7.08393,22.60114,88.43176,0
bike_v1,1.76351E+12,0.3304,3.99832,10.03889,-94.96337,-21.70589,1.88504,22.60114,88.43176,0
bike_v1,1.76351E+12,-0.43574,3.73256,6.07648,-82.5801,-31.49539,-4.10166,22.60114,88.43176,0
bike_v1,1.76351E+12,0.33998,3.18908,5.91847,-96.63155,-28.27795,3.28765,22.60114,88.43176,0
bike_v1,1.76351E+12,0.60813,2.74136,7.46033,-103.04394,-20.11493,4.66015,22.60114,88.43176,0
bike_v1,1.76351E+12,0.37828,3.50272,6.72292,-96.68356,-27.48294,3.22051,22.60114,88.43176,0
bike_v1,1.76351E+12,-0.26576,4.83389,4.34787,-85.83022,-47.97691,-3.49776,22.60114,88.43176,0
bike_v1,1.76351E+12,0.01197,6.34224,6.19619,-90.13888,-45.6673,0.11069,22.60114,88.43176,0
bike_v1,1.76351E+12,-1.06781,7.28077,5.67186,-78.3245,-51.59595,-10.662,22.60114,88.43176,0
bike_v1,1.76351E+12,-0.05986,5.09486,4.43406,-89.0951,-48.96434,-0.77338,22.60114,88.43176,0
bike_v1,1.76351E+12,-0.29209,6.27999,8.16902,-86.87711,-37.53386,-2.0478,22.60114,88.43176,0
bike_v1,1.76351E+12,-1.23301,7.91044,7.11078,-78.32925,-47.62503,-9.83731,22.60114,88.43176,0
bike_v1,1.76351E+12,0.87388,4.37421,3.72777,-105.12746,-48.80368,13.19334,22.60114,88.43176,0
bike_v1,1.76351E+12,-0.09816,3.72059,5.43005,-88.27626,-34.414,-1.03566,22.60114,88.43176,0
bike_v1,1.76351E+12,-1.91776,9.01656,9.38527,-75.05524,-43.26697,-11.54865,22.60114,88.43176,0
bike_v1,1.76351E+12,1.3216,5.68862,11.12825,-104.12527,-26.91328,6.77277,22.60114,88.43176,0
bike_v1,1.76351E+12,-0.63446,6.47871,6.50744,-82.90472,-44.73773,-5.56863,22.60114,88.43176,0
bike_v1,1.76351E+12,-0.88825,7.48667,11.5185,-82.37637,-32.94504,-4.40963,22.60114,88.43176,0
bike_v1,1.76351E+12,-0.94571,6.84981,9.88566,-81.02413,-34.59616,-5.46456,22.60114,88.43176,0
bike_v1,1.76351E+12,-0.19393,7.32386,5.2457,-87.76994,-54.36945,-2.11723,22.60114,88.43176,0
bike_v1,1.76351E+12,-0.00479,5.86579,6.22732,-89.94169,-43.28764,-0.04406,22.60114,88.43176,0
bike_v1,1.76351E+12,0.0814,5.49948,5.39892,-91.08702,-45.52539,0.86382,22.60114,88.43176,0
bike_v1,1.76351E+12,-1.91297,7.89847,9.17458,-73.64099,-40.12363,-11.77784,22.60114,88.43176,0
bike_v1,1.76351E+12,0.39504,6.18901,4.41491,-95.37057,-54.38991,5.11317,22.60114,88.43176,0
bike_v1,1.76351E+12,-1.6089,9.22486,9.23204,-77.48828,-44.54916,-9.88587,22.60114,88.43176,0
bike_v1,1.76351E+12,-0.69432,7.69018,6.90248,-83.16844,-47.94635,-5.74404,22.60114,88.43176,0
bike_v1,1.76351E+12,-1.50116,9.39724,10.12987,-78.79218,-42.54121,-8.42942,22.60114,88.43176,0
bike_v1,1.76351E+12,-0.32561,7.52258,6.29675,-86.61395,-50.03143,-2.96019,22.60114,88.43176,0
bike_v1,1.76351E+12,-2.54743,10.55364,11.7675,-73.49966,-41.23595,-12.21491,22.60114,88.43176,0
bike_v1,1.76351E+12,-0.78051,9.51695,9.93833,-84.12916,-43.67125,-4.49052,22.60114,88.43176,0
bike_v1,1.76351E+12,-1.06303,8.43238,7.16106,-80.29139,-49.35262,-8.44363,22.60114,88.43176,0
bike_v1,1.76351E+12,-1.20428,8.08043,10.38605,-80.04885,-37.69794,-6.61403,22.60114,88.43176,0
bike_v1,1.76351E+12,-0.73981,10.18254,8.72926,-84.38728,-49.29294,-4.84426,22.60114,88.43176,0
bike_v1,1.76351E+12,-0.00958,9.78031,6.7325,-89.91579,-55.45753,-0.0815,22.60114,88.43176,0
bike_v1,1.76351E+12,-0.76614,9.80665,5.70059,-82.68235,-59.6073,-7.65453,22.60114,88.43176,0
bike_v1,1.76351E+12,-1.57778,9.67018,3.89776,-71.66479,-66.49863,-22.03767,22.60114,88.43176,0
bike_v1,1.76351E+12,0.23942,9.23444,6.04536,-92.2878,-56.76849,2.26795,22.60114,88.43176,0
bike_v1,1.76351E+12,-1.81959,10.36689,15.8568,-78.78149,-33.00452,-6.54615,22.60114,88.43176,0
bike_v1,1.76351E+12,0.30167,9.26795,6.83545,-92.70109,-53.56328,2.527,22.60114,88.43176,0
bike_v1,1.76351E+12,-0.30406,9.24401,-0.50996,-70.36095,-86.32502,-30.80527,22.60114,88.43176,0
bike_v1,1.76351E+12,1.35512,6.65828,2.95923,-111.04416,-63.94931,24.60441,22.60114,88.43176,0
bike_v1,1.76351E+12,-0.79966,12.53843,13.90313,-85.51831,-41.99843,-3.29184,22.60114,88.43176,0
bike_v1,1.76351E+12,-0.53391,8.92558,10.26873,-85.84384,-40.95889,-2.97633,22.60114,88.43176,0
bike_v1,1.76351E+12,3.83791,5.00388,17.31726,-128.42114,-15.7542,12.49609,22.60114,88.43176,0
bike_v1,1.76351E+12,-0.69432,9.51935,6.98867,-83.95553,-53.58124,-5.67367,22.60114,88.43176,0
bike_v1,1.76351E+12,0.90022,11.66694,5.41808,-98.2841,-64.79073,9.43358,22.60114,88.43176,0
bike_v1,1.76351E+12,1.17076,7.93438,7.78355,-100.70961,-45.22937,8.55403,22.60114,88.43176,0
bike_v1,1.76351E+12,1.02472,7.99185,5.64074,-100.72805,-54.34571,10.29629,22.60114,88.43176,0
bike_v1,1.76351E+12,0.14365,11.19768,7.00065,-91.16148,-57.98148,1.17553,22.60114,88.43176,0
bike_v1,1.76351E+12,0.19872,6.82108,12.59829,-91.82063,-28.42941,0.90368,22.60114,88.43176,0
bike_v1,1.76351E+12,1.41258,7.70694,8.09719,-102.91466,-43.15674,9.89583,22.60114,88.43176,0
bike_v1,1.76351E+12,1.66876,7.48188,0.56743,-132.86218,-76.74389,71.22049,22.60114,88.43176,0
bike_v1,1.76351E+12,2.63362,7.40527,11.75314,-111.7959,-31.58408,12.63011,22.60114,88.43176,0
bike_v1,1.76351E+12,1.48919,5.99269,3.57454,-111.59795,-57.13033,22.61714,22.60114,88.43176,0
bike_v1,1.76351E+12,2.00155,3.91931,5.94959,-120.17522,-31.97931,18.59389,22.60114,88.43176,0
bike_v1,1.76351E+12,1.72861,7.89608,-0.6608,-131.96698,-76.80961,69.07957,22.60114,88.43176,0
bike_v1,1.76351E+12,2.96881,5.47315,6.19141,-123.60003,-38.55807,25.61795,22.60114,88.43176,0
bike_v1,1.76351E+12,1.09176,8.29591,15.95735,-98.12515,-27.41431,3.91391,22.60114,88.43176,0
bike_v1,1.76351E+12,1.33118,7.9296,0.09577,-136.87286,-80.44617,85.88509,22.60114,88.43176,0
bike_v1,1.76351E+12,2.23858,7.434,4.59687,-115.0798,-55.48051,25.96512,22.60114,88.43176,0
bike_v1,1.76351E+12,1.43413,8.9615,4.82432,-105.26077,-60.68051,16.55566,22.60114,88.43176,0
bike_v1,1.76351E+12,0.28012,9.5385,3.22978,-93.9809,-71.22836,4.95691,22.60114,88.43176,0
bike_v1,1.76351E+12,1.56102,10.39084,2.57377,-112.9292,-73.84403,31.2373,22.60114,88.43176,0
bike_v1,1.76351E+12,3.11486,6.80193,5.94001,-121.36176,-45.40189,27.67186,22.60114,88.43176,0
bike_v1,1.76351E+12,0.5794,9.11233,13.02446,-94.16817,-34.95128,2.54714,22.60114,88.43176,0
bike_v1,1.76351E+12,2.70784,7.26401,7.80031,-114.84871,-41.33954,19.14421,22.60114,88.43176,0
bike_v1,1.76351E+12,1.09176,5.72214,4.73334,-104.65377,-49.67157,12.98827,22.60114,88.43176,0
bike_v1,1.76351E+12,0.42377,9.2488,2.45406,-97.44941,-74.92971,9.79738,22.60114,88.43176,0
bike_v1,1.76351E+12,4.0055,8.50899,11.44428,-118.81955,-35.06012,19.29004,22.60114,88.43176,0
bike_v1,1.76351E+12,2.73897,4.53941,8.10198,-123.74623,-27.95821,18.67841,22.60114,88.43176,0
bike_v1,1.76351E+12,0.71826,8.7532,9.51216,-95.79626,-42.53947,4.31819,22.60114,88.43176,0
bike_v1,1.76351E+12,2.62165,11.47062,5.52821,-112.27983,-61.92486,25.37177,22.60114,88.43176,0
bike_v1,1.76351E+12,2.48518,7.36217,10.99417,-111.01786,-33.15111,12.73738,22.60114,88.43176,0
bike_v1,1.76351E+12,2.99275,4.94403,4.86262,-127.70716,-40.88884,31.61065,22.60114,88.43176,0
bike_v1,1.76351E+12,4.56095,9.11473,8.48505,-123.05998,-43.41591,28.25928,22.60114,88.43176,0
bike_v1,1.76351E+12,2.22421,10.0317,10.74278,-105.40928,-42.44028,11.69739,22.60114,88.43176,0
bike_v1,1.76351E+12,2.30083,7.70933,10.16099,-109.26688,-36.50087,12.75874,22.60114,88.43176,0
bike_v1,1.76351E+12,4.70939,7.58962,5.29597,-131.56625,-46.96135,41.64479,22.60114,88.43176,0
bike_v1,1.76351E+12,2.7246,8.69813,0.10774,-140.39478,-72.59461,87.73553,22.60114,88.43176,0
bike_v1,1.76351E+12,0.73023,7.5968,-1.19471,-111.5598,-79.55679,31.4342,22.60114,88.43176,0
bike_v1,1.76351E+12,3.58651,9.16022,9.22486,-116.40764,-42.78442,21.24548,22.60114,88.43176,0
bike_v1,1.76351E+12,3.70622,8.32224,10.75236,-117.71983,-36.19452,19.01853,22.60114,88.43176,0
bike_v1,1.76351E+12,0.0814,6.5242,1.35751,-92.51186,-78.22546,3.43162,22.60114,88.43176,0
bike_v1,1.76351E+12,2.72939,8.10437,9.15064,-112.38667,-40.32169,16.60843,22.60114,88.43176,0
bike_v1,1.76351E+12,4.17309,8.87291,15.09784,-117.62025,-29.52957,15.45098,22.60114,88.43176,0
bike_v1,1.76351E+12,2.44209,9.03572,11.08755,-107.87481,-38.51511,12.42134,22.60114,88.43176,0
bike_v1,1.76351E+12,2.16196,9.67257,9.94073,-105.73304,-43.55524,12.26993,22.60114,88.43176,0
bike_v1,1.76351E+12,2.16675,7.19458,13.79778,-108.13176,-27.25377,8.92463,22.60114,88.43176,0
bike_v1,1.76351E+12,3.12443,6.10761,16.87433,-118.16748,-19.5905,10.49002,22.60114,88.43176,0
bike_v1,1.76351E+12,4.94403,9.36372,17.6309,-120.0437,-27.08392,15.66446,22.60114,88.43176,0
bike_v1,1.76351E+12,-0.10774,6.75404,8.39647,-88.91483,-38.81059,-0.73515,22.60114,88.43176,0
bike_v1,1.76351E+12,2.50194,5.79157,22.51986,-113.8525,-14.33803,6.33952,22.60114,88.43176,0
bike_v1,1.76351E+12,5.17866,8.90643,10.72602,-125.0133,-36.78781,25.77183,22.60114,88.43176,0
bike_v1,1.76351E+12,3.69186,7.24007,16.50563,-118.54865,-23.17407,12.60798,22.60114,88.43176,0
bike_v1,1.76351E+12,1.17316,5.89931,-3.25133,-108.4029,-59.63326,19.8407,22.60114,88.43176,0
bike_v1,1.76351E+12,2.69827,9.02135,15.28219,-108.36014,-30.17056,10.0131,22.60114,88.43176,0
bike_v1,1.76351E+12,4.02465,11.25754,4.55377,-123.93311,-61.63757,41.47046,22.60114,88.43176,0
bike_v1,1.76351E+12,1.21625,9.07163,9.04051,-99.69667,-44.84152,7.66222,22.60114,88.43176,0
bike_v1,1.76351E+12,0.79248,9.14346,1.98,-105.84222,-76.87053,21.81335,22.60114,88.43176,0
bike_v1,1.76351E+12,2.77009,7.36456,0.32801,-140.2422,-69.25504,83.24707,22.60114,88.43176,0
bike_v1,1.76351E+12,1.48919,3.39498,9.77792,-114.5652,-18.94481,8.6597,22.60114,88.43176,0
bike_v1,1.76351E+12,0.96486,8.92798,17.35796,-96.67574,-27.18286,3.18158,22.60114,88.43176,0
bike_v1,1.76351E+12,2.28407,12.02129,0.84755,-131.56223,-78.54355,69.64166,22.60114,88.43176,0
bike_v1,1.76351E+12,4.7477,6.24887,15.40669,-128.95172,-21.18672,17.12713,22.60114,88.43176,0
bike_v1,1.76351E+12,1.75495,6.31112,12.17691,-106.80354,-27.15715,8.20106,22.60114,88.43176,0
bike_v1,1.76351E+12,2.40378,6.53378,4.03423,-119.55633,-54.29373,30.78842,22.60114,88.43176,0
bike_v1,1.76351E+12,2.32716,6.8115,7.03416,-113.25738,-42.59357,18.30614,22.60114,88.43176,0
bike_v1,1.76351E+12,2.13802,3.31836,8.55688,-124.23174,-20.61803,14.0287,22.60114,88.43176,0
bike_v1,1.76351E+12,3.84509,8.95671,14.06594,-115.8478,-31.55948,15.28895,22.60114,88.43176,0
bike_v1,1.76351E+12,-3.08134,7.7644,-9.15064,-64.37802,-38.80421,-18.61017,22.60114,88.43176,0
bike_v1,1.76351E+12,3.93607,3.90973,11.34373,-136.69469,-18.03606,19.13584,22.60114,88.43176,0
bike_v1,1.76351E+12,0.9098,3.0957,14.50407,-106.61921,-12.0253,3.58929,22.60114,88.43176,0
bike_v1,1.76351E+12,0.11253,5.17866,1.76453,-92.93588,-71.14893,3.64893,22.60114,88.43176,0
bike_v1,1.76351E+12,3.07176,11.92791,-4.74291,-116.99143,-64.65115,32.92923,22.60114,88.43176,0
bike_v1,1.76351E+12,0.92177,1.58257,12.05959,-120.38428,-7.45465,4.37087,22.60114,88.43176,0
bike_v1,1.76351E+12,1.17316,-0.69911,2.40378,150.618,14.64771,26.01459,22.60114,88.43176,0
bike_v1,1.76351E+12,0.07422,4.38139,6.58645,-91.09978,-33.63068,0.64562,22.60114,88.43176,0
bike_v1,1.76351E+12,3.22499,14.2024,7.3502,-111.37527,-60.52676,23.69005,22.60114,88.43176,0
bike_v1,1.76351E+12,1.7765,-1.44131,-1.08457,149.3651,34.70143,58.59542,22.60114,88.43176,0
bike_v1,1.76351E+12,-0.42617,3.7565,12.22479,-83.32941,-17.07167,-1.99658,22.60114,88.43176,0
bike_v1,1.76351E+12,0.83318,6.00705,10.53928,-98.68092,-29.60504,4.52012,22.60114,88.43176,0
bike_v1,1.76351E+12,2.98796,3.69186,15.55752,-129.65018,-13.11833,10.87179,22.60114,88.43176,0
bike_v1,1.76351E+12,1.35751,2.78446,11.15698,-116.49928,-13.91451,6.9373,22.60114,88.43176,0
bike_v1,1.76351E+12,1.15401,9.27993,4.71897,-102.42564,-62.36803,13.74175,22.60114,88.43176,0
bike_v1,1.76351E+12,1.75734,3.86664,4.60166,-118.72935,-38.13107,20.90155,22.60114,88.43176,0
bike_v1,1.76351E+12,0.61292,-1.87466,-2.81079,110.39278,33.0898,12.30124,22.60114,88.43176,0
bike_v1,1.76351E+12,0.80445,6.92164,14.66688,-97.09284,-25.2305,3.13942,22.60114,88.43176,0
bike_v1,1.76351E+12,3.16513,0.2873,-0.26815,-176.52698,-5.1682,85.15746,22.60114,88.43176,0
bike_v1,1.76351E+12,1.82678,4.31196,9.15543,-114.47361,-24.79073,11.284,22.60114,88.43176,0
bike_v1,1.76351E+12,1.80762,5.87777,2.95444,-117.8706,-59.49066,31.45961,22.60114,88.43176,0
bike_v1,1.76351E+12,2.7246,6.51462,11.6861,-114.7273,-28.49785,13.124,22.60114,88.43176,0
bike_v1,1.76351E+12,4.11563,0.71347,-6.84263,-170.65456,-5.10591,31.02562,22.60114,88.43176,0
bike_v1,1.76351E+12,1.30963,11.01093,7.10838,-100.42867,-56.7175,10.43895,22.60114,88.43176,0
bike_v1,1.76351E+12,1.72861,9.07402,13.13698,-102.29175,-34.40414,7.49613,22.60114,88.43176,0
bike_v1,1.76351E+12,0.91937,3.14119,0.94092,-123.38564,-67.27631,44.33637,22.60114,88.43176,0
bike_v1,1.76351E+12,-1.17316,14.85842,-6.90727,-81.53316,-64.75472,-9.63934,22.60114,88.43176,0
bike_v1,1.76351E+12,0.79009,6.73968,5.31752,-99.33313,-51.42242,8.45128,22.60114,88.43176,0
bike_v1,1.76351E+12,0.68474,8.30788,5.70059,-97.05413,-55.35167,6.84942,22.60114,88.43176,0
bike_v1,1.76351E+12,1.97522,12.3062,-15.32289,-100.7909,-38.53853,7.34528,22.60114,88.43176,0
bike_v1,1.76351E+12,2.92332,6.27281,25.13194,-115.47741,-13.92421,6.63477,22.60114,88.43176,0
bike_v1,1.76351E+12,0.89783,1.97761,11.36288,-114.65466,-9.84286,4.51778,22.60114,88.43176,0
bike_v1,1.76351E+12,3.34709,12.89517,3.27048,-123.09743,-70.05423,45.66331,22.60114,88.43176,0
bike_v1,1.76351E+12,1.40061,7.98466,28.86928,-100.19607,-15.44308,2.77756,22.60114,88.43176,0
bike_v1,1.76351E+12,-0.68235,4.61363,13.36204,-81.26471,-19.0257,-2.92333,22.60114,88.43176,0
bike_v1,1.76351E+12,-4.20422,15.46415,-8.42759,-65.67725,-58.65755,-26.51294,22.60114,88.43176,0
bike_v1,1.76351E+12,1.34315,7.11317,26.88449,-100.93602,-14.80225,2.86012,22.60114,88.43176,0
bike_v1,1.76351E+12,2.81798,9.90481,15.98369,-107.6659,-31.39449,9.99868,22.60114,88.43176,0
bike_v1,1.76351E+12,-5.46836,14.17367,-15.5671,-64.54636,-40.66357,-19.35516,22.60114,88.43176,0
bike_v1,1.76351E+12,2.58334,3.42371,12.69885,-127.84691,-14.79919,11.49885,22.60114,88.43176,0
bike_v1,1.76351E+12,0.30885,9.29669,-22.41212,-92.00726,-22.52705,0.78952,22.60114,88.43176,0
bike_v1,1.76351E+12,-1.403,9.36851,27.81344,-81.17186,-18.59326,-2.88774,22.60114,88.43176,0
bike_v1,1.76351E+12,1.10373,5.18105,16.19199,-102.42116,-17.70493,3.89954,22.60114,88.43176,0
bike_v1,1.76351E+12,1.89621,7.00065,5.98072,-110.07623,-48.13266,17.59141,22.60114,88.43176,0
bike_v1,1.76351E+12,1.83635,12.72758,-11.83214,-100.68678,-46.74788,8.82193,22.60114,88.43176,0
bike_v1,1.76351E+12,-0.36871,5.27203,17.53753,-85.88187,-16.72804,-1.2044,22.60114,88.43176,0
bike_v1,1.76351E+12,0.4956,7.72369,10.93432,-94.21555,-35.2086,2.59516,22.60114,88.43176,0
bike_v1,1.76351E+12,3.36625,1.89381,12.79701,-151.07263,-8.14487,14.73776,22.60114,88.43176,0
bike_v1,1.76351E+12,1.57538,11.91834,3.99113,-107.05807,-70.20026,21.54019,22.60114,88.43176,0
bike_v1,1.76351E+12,5.54258,8.78433,-13.01967,-125.92094,-31.83142,23.05984,22.60114,88.43176,0
bike_v1,1.76351E+12,1.29047,6.03339,26.70014,-102.27386,-12.71883,2.76707,22.60114,88.43176,0
bike_v1,1.76351E+12,1.53468,4.07014,-6.80911,-112.77847,-30.24741,12.70146,22.60114,88.43176,0
bike_v1,1.76351E+12,2.28646,8.43717,24.77999,-105.7208,-18.72887,5.27178,22.60114,88.43176,0
bike_v1,1.76351E+12,0.74939,7.19697,8.84897,-97.07137,-39.02168,4.84061,22.60114,88.43176,0
bike_v1,1.76351E+12,3.82833,10.5704,15.71793,-112.43072,-33.16075,13.68868,22.60114,88.43176,0
bike_v1,1.76351E+12,3.56257,-2.28167,0.64404,158.00085,32.22083,79.75276,22.60114,88.43176,0
bike_v1,1.76351E+12,0.36631,10.87207,14.52323,-92.2478,-36.80974,1.44484,22.60114,88.43176,0
bike_v1,1.76351E+12,4.5849,12.54083,2.73178,-131.49188,-66.94672,59.21256,22.60114,88.43176,0
bike_v1,1.76351E+12,0.18196,2.22182,15.1122,-94.71537,-8.3632,0.68984,22.60114,88.43176,0
bike_v1,1.76351E+12,-0.8667,12.44745,-2.83713,-77.49541,-76.59494,-16.98712,22.60114,88.43176,0
bike_v1,1.76351E+12,-0.55067,9.34936,9.18176,-85.68311,-45.46674,-3.43214,22.60114,88.43176,0
bike_v1,1.76351E+12,4.18746,7.11078,18.85434,-121.77897,-20.21228,12.52187,22.60114,88.43176,0
bike_v1,1.76351E+12,2.17633,9.6606,21.93807,-103.46411,-23.66336,5.66539,22.60114,88.43176,0
bike_v1,1.76351E+12,-1.56341,13.01727,-7.72848,-78.99293,-58.7952,-11.43616,22.60114,88.43176,0
bike_v1,1.76351E+12,3.01191,6.08367,28.81422,-116.71077,-11.85924,5.96737,22.60114,88.43176,0
bike_v1,1.76351E+12,-1.6927,5.87058,-4.38618,-67.64411,-51.31046,-21.10245,22.60114,88.43176,0
bike_v1,1.76351E+12,2.92811,10.20888,4.93445,-116.83181,-60.66216,30.68495,22.60114,88.43176,0
bike_v1,1.76351E+12,-0.81642,11.23838,9.35175,-84.31596,-50.1283,-4.98936,22.60114,88.43176,0
bike_v1,1.76351E+12,3.58651,9.72525,-10.30704,-114.70428,-41.70566,19.18623,22.60114,88.43176,0
bike_v1,1.76351E+12,0.39025,4.46519,8.63589,-95.41076,-27.3174,2.58743,22.60114,88.43176,0
bike_v1,1.76351E+12,2.55461,11.62385,-8.47069,-107.65684,-52.72334,16.78241,22.60114,88.43176,0
bike_v1,1.76351E+12,2.43251,3.15556,23.24291,-127.84488,-7.68996,5.9746,22.60114,88.43176,0
bike_v1,1.76351E+12,0.52672,10.54885,12.43309,-93.44584,-40.2876,2.42587,22.60114,88.43176,0
bike_v1,1.76351E+12,1.61609,13.02206,2.33674,-114.04732,-77.69212,34.66767,22.60114,88.43176,0
bike_v1,1.76351E+12,2.54743,6.10043,28.10793,-113.00532,-12.19684,5.17859,22.60114,88.43176,0
bike_v1,1.76351E+12,1.86987,8.87052,6.6487,-106.77933,-52.09547,15.70804,22.60114,88.43176,0
bike_v1,1.76351E+12,-0.30406,8.72686,3.89058,-86.12102,-65.90697,-4.4688,22.60114,88.43176,0
bike_v1,1.76351E+12,0.33998,5.79157,-16.2279,-93.49747,-19.63699,1.20018,22.60114,88.43176,0
bike_v1,1.76351E+12,4.43167,4.4604,10.60871,-136.91635,-21.20412,22.67218,22.60114,88.43176,0
bike_v1,1.76351E+12,-0.1652,7.01501,10.07959,-88.45589,-34.83284,-0.93897,22.60114,88.43176,0
bike_v1,1.76351E+12,1.0343,11.59272,6.87136,-98.24675,-59.06122,8.56005,22.60114,88.43176,0
bike_v1,1.76351E+12,2.43011,4.97994,21.12165,-116.46716,-13.18268,6.56321,22.60114,88.43176,0
bike_v1,1.76351E+12,0.35434,11.22881,-0.63207,-108.73676,-86.30764,29.27525,22.60114,88.43176,0
bike_v1,1.76351E+12,0.9912,7.80749,8.16183,-99.04043,-43.51941,6.92428,22.60114,88.43176,0
bike_v1,1.76351E+12,3.19626,7.67821,-5.38456,-121.13931,-50.80196,30.69325,22.60114,88.43176,0
bike_v1,1.76351E+12,2.08056,13.97974,-16.90067,-100.10358,-39.38509,7.0181,22.60114,88.43176,0
bike_v1,1.76351E+12,-0.78769,7.26401,20.56859,-83.56274,-19.43802,-2.19312,22.60114,88.43176,0
bike_v1,1.76351E+12,1.78129,8.3414,12.82334,-103.55825,-32.79364,7.90833,22.60114,88.43176,0
bike_v1,1.76351E+12,1.45328,11.7699,-5.11162,-103.58049,-65.70047,15.87094,22.60114,88.43176,0
bike_v1,1.76351E+12,1.72143,4.28562,-0.16999,-141.12088,-68.01954,84.36043,22.60114,88.43176,0
bike_v1,1.76351E+12,-0.4956,6.3183,18.6221,-85.34814,-18.73541,-1.52448,22.60114,88.43176,0
bike_v1,1.76351E+12,1.66636,8.78193,4.19225,-109.04063,-62.81039,21.67719,22.60114,88.43176,0
bike_v1,1.76351E+12,1.59214,5.47793,5.25527,-110.5624,-44.93091,16.85478,22.60114,88.43176,0
bike_v1,1.76351E+12,4.42209,8.94713,10.84334,-120.69,-37.38107,22.18644,22.60114,88.43176,0
bike_v1,1.76351E+12,-3.08852,8.90882,7.56568,-64.92997,-47.47075,-22.20665,22.60114,88.43176,0
bike_v1,1.76351E+12,3.69186,6.27999,-1.3623,-140.2885,-57.9278,69.74588,22.60114,88.43176,0
bike_v1,1.76351E+12,1.26653,8.94234,15.82567,-98.84903,-29.39047,4.57564,22.60114,88.43176,0
bike_v1,1.76351E+12,-1.39343,4.49152,-5.93283,-70.03853,-36.39049,-13.21735,22.60114,88.43176,0
bike_v1,1.76351E+12,3.72538,11.00615,7.28077,-116.91207,-53.38449,27.09764,22.60114,88.43176,0
bike_v1,1.76351E+12,-0.80206,7.35259,22.07933,-83.55154,-18.40685,-2.08042,22.60114,88.43176,0
bike_v1,1.76351E+12,2.57137,10.1155,-1.84114,-126.82845,-72.63845,54.39677,22.60114,88.43176,0
bike_v1,1.76351E+12,-0.34716,9.73961,12.1003,-87.57589,-38.81932,-1.64337,22.60114,88.43176,0
bike_v1,1.76351E+12,0.83558,1.81002,8.01339,-115.18056,-12.66162,5.95286,22.60114,88.43176,0
bike_v1,1.76351E+12,0.39983,7.80031,29.1518,-93.00302,-14.97868,0.78579,22.60114,88.43176,0
bike_v1,1.76351E+12,-2.78446,8.01818,-9.26077,-67.12471,-39.66396,-16.73456,22.60114,88.43176,0
bike_v1,1.76351E+12,4.81713,14.22635,-8.33182,-118.23971,-55.92162,30.03482,22.60114,88.43176,0
bike_v1,1.76351E+12,-1.99676,11.34373,36.97126,-79.71347,-17.03397,-3.09146,22.60114,88.43176,0
bike_v1,1.76351E+12,0.54827,0.45011,4.18985,-140.80031,-6.08025,7.4552,22.60114,88.43176,0
bike_v1,1.76351E+12,-1.27372,18.64125,1.14203,-60.41451,-84.7566,-48.12007,22.60114,88.43176,0
bike_v1,1.76351E+12,9.62948,3.02627,12.38521,-163.91519,-10.9183,37.86501,22.60114,88.43176,0
bike_v1,1.76351E+12,-0.95529,2.33674,12.21522,-67.50355,-10.79752,-4.47169,22.60114,88.43176,0
bike_v1,1.76351E+12,3.70383,1.31442,-13.51527,-160.72829,-5.35843,15.32552,22.60114,88.43176,0
bike_v1,1.76351E+12,6.0286,4.15155,-4.30477,-151.75053,-29.26762,54.47093,22.60114,88.43176,0
bike_v1,1.76351E+12,0.42617,3.53624,18.92616,-96.95084,-10.5807,1.28993,22.60114,88.43176,0
bike_v1,1.76351E+12,0.73741,4.24492,13.88158,-100.15248,-16.98082,3.04079,22.60114,88.43176,0
bike_v1,1.76351E+12,0.99838,10.30943,-2.478,-106.21245,-75.47207,21.94444,22.60114,88.43176,0
bike_v1,1.76351E+12,1.36948,8.37013,24.47114,-99.64125,-18.85538,3.20311,22.60114,88.43176,0
bike_v1,1.76351E+12,2.30322,10.16817,10.36929,-105.97366,-43.74948,12.5232,22.60114,88.43176,0
bike_v1,1.76351E+12,3.28724,-0.07661,2.4349,178.85049,1.07294,53.47214,22.60114,88.43176,0
bike_v1,1.76351E+12,1.01275,12.54562,-1.67594,-111.00098,-81.12863,31.14397,22.60114,88.43176,0
bike_v1,1.76351E+12,4.90811,0.24181,14.61181,-177.22868,-0.89877,18.56722,22.60114,88.43176,0
bike_v1,1.76351E+12,3.08134,5.16429,23.97793,-121.26955,-12.0583,7.32279,22.60114,88.43176,0
bike_v1,1.76351E+12,1.18752,7.59201,4.69742,-103.87074,-57.45407,14.18731,22.60114,88.43176,0
bike_v1,1.76351E+12,3.82833,2.29125,14.92545,-149.54779,-8.45787,14.38604,22.60114,88.43176,0
bike_v1,1.76351E+12,-0.43814,5.87058,8.04931,-85.06236,-36.06396,-3.11564,22.60114,88.43176,0
bike_v1,1.76351E+12,4.39336,8.51857,14.64054,-119.82989,-29.13078,16.70354,22.60114,88.43176,0
bike_v1,1.76351E+12,1.38145,13.12501,0.35195,-132.09509,-83.80106,75.70704,22.60114,88.43176,0
bike_v1,1.76351E+12,-2.66714,9.33978,9.05008,-69.83301,-44.70967,-16.42072,22.60114,88.43176,0
bike_v1,1.76351E+12,2.78924,10.89362,0.98881,-133.29611,-74.80198,70.48026,22.60114,88.43176,0
bike_v1,1.76351E+12,0.7039,9.41161,39.31519,-94.35759,-13.46053,1.02571,22.60114,88.43176,0
bike_v1,1.76351E+12,2.12845,2.48997,-4.55377,-133.55104,-26.35173,25.05151,22.60114,88.43176,0
bike_v1,1.76351E+12,0.43574,17.25022,-6.45237,-93.18409,-69.4491,3.86346,22.60114,88.43176,0
bike_v1,1.76351E+12,3.98635,1.87466,10.21606,-155.52985,-9.70082,21.31592,22.60114,88.43176,0
bike_v1,1.76351E+12,-2.26731,5.62398,20.71463,-67.53127,-15.10349,-6.24641,22.60114,88.43176,0
bike_v1,1.76351E+12,-0.94571,9.9934,10.53449,-83.25516,-43.37531,-5.12985,22.60114,88.43176,0
bike_v1,1.76351E+12,8.90404,-1.23062,11.63343,172.68973,4.8017,37.42986,22.60114,88.43176,0
bike_v1,1.76351E+12,-0.02394,-4.32632,-5.40132,89.62394,38.69359,-0.25397,22.60114,88.43176,0
bike_v1,1.76351E+12,1.85311,12.6342,9.20331,-102.03804,-53.38528,11.38444,22.60114,88.43176,0
bike_v1,1.76351E+12,2.09732,7.80031,2.35829,-121.4968,-67.97184,41.64798,22.60114,88.43176,0
bike_v1,1.76351E+12,0.41659,6.72531,19.06503,-93.68687,-19.42633,1.25177,22.60114,88.43176,0
bike_v1,1.76351E+12,2.78685,1.49877,7.62074,-152.48141,-10.46497,20.0871,22.60114,88.43176,0
bike_v1,1.76351E+12,1.92254,1.01514,7.39329,-152.55714,-7.56947,14.5763,22.60114,88.43176,0
bike_v1,1.76351E+12,2.33914,15.71554,16.06749,-100.64577,-44.06528,8.28304,22.60114,88.43176,0
bike_v1,1.76351E+12,1.43892,14.34606,9.44991,-98.73872,-56.32433,8.65779,22.60114,88.43176,0
bike_v1,1.76351E+12,4.53701,4.01747,8.18578,-141.29942,-23.23198,28.99766,22.60114,88.43176,0
bike_v1,1.76351E+12,-1.72622,10.16817,17.51359,-79.37919,-30.01881,-5.62915,22.60114,88.43176,0
bike_v1,1.76351E+12,1.49398,4.67109,16.66604,-108.18098,-15.59741,5.12243,22.60114,88.43176,0
bike_v1,1.76351E+12,4.71179,9.56005,-5.66468,-127.19741,-52.37773,39.75313,22.60114,88.43176,0
bike_v1,1.76351E+12,6.49547,6.70137,8.81545,-139.14522,-31.46643,36.38382,22.60114,88.43176,0
bike_v1,1.76351E+12,8.28873,7.29992,7.34062,-145.43254,-33.39757,48.47141,22.60114,88.43176,0
bike_v1,1.76351E+12,-2.86107,13.06755,7.60159,-70.46682,-58.13683,-20.62523,22.60114,88.43176,0
bike_v1,1.76351E+12,3.16035,5.55455,11.54963,-121.5895,-24.88545,15.30335,22.60114,88.43176,0
bike_v1,1.76351E+12,3.61764,-0.79248,13.27824,167.79781,3.29567,15.24026,22.60114,88.43176,0
bike_v1,1.76351E+12,0.94332,4.32872,-3.89058,-106.09425,-47.2366,13.62901,22.60114,88.43176,0
bike_v1,1.76351E+12,3.88579,1.65679,26.2596,-157.00906,-3.57137,8.41731,22.60114,88.43176,0
bike_v1,1.76351E+12,1.43173,-2.42054,0.96726,135.76668,54.47975,55.95762,22.60114,88.43176,0
bike_v1,1.76351E+12,1.96803,12.20085,-1.89621,-120.7674,-77.37457,46.06485,22.60114,88.43176,0
bike_v1,1.76351E+12,4.2114,7.83143,-9.97424,-122.53757,-35.87943,22.89081,22.60114,88.43176,0
bike_v1,1.76351E+12,1.75016,0.49321,11.84172,-164.32396,-2.35938,8.40724,22.60114,88.43176,0
bike_v1,1.76351E+12,-0.6201,7.99424,-17.50161,-85.27229,-24.536,-2.02917,22.60114,88.43176,0
bike_v1,1.76351E+12,-1.09894,8.57124,21.58612,-82.32672,-21.63121,-2.91438,22.60114,88.43176,0
bike_v1,1.76351E+12,0.89543,5.87298,7.81228,-100.08723,-36.75504,6.53862,22.60114,88.43176,0
bike_v1,1.76351E+12,2.01113,5.2864,15.01164,-111.63243,-19.24075,7.63055,22.60114,88.43176,0
bike_v1,1.76351E+12,0.34477,9.65103,6.66546,-93.06303,-55.33339,2.96094,22.60114,88.43176,0
bike_v1,1.76351E+12,-0.94092,7.86495,15.29655,-82.6174,-27.16666,-3.51994,22.60114,88.43176,0
bike_v1,1.76351E+12,2.46603,11.71004,18.35874,-103.32536,-32.29976,7.65043,22.60114,88.43176,0
bike_v1,1.76351E+12,4.79319,5.6144,-3.58173,-140.95378,-43.17674,53.23098,22.60114,88.43176,0
bike_v1,1.76351E+12,6.27999,5.63834,21.73217,-139.03096,-13.99573,16.11782,22.60114,88.43176,0
bike_v1,1.76351E+12,3.38301,4.84826,19.76892,-125.54884,-13.58955,9.71082,22.60114,88.43176,0
bike_v1,1.76351E+12,3.64158,6.45477,15.26782,-120.96883,-22.35413,13.41517,22.60114,88.43176,0
bike_v1,1.76351E+12,-0.54588,1.37427,2.55461,-66.50594,-27.74799,-12.06175,22.60114,88.43176,0
bike_v1,1.76351E+12,5.68862,1.7334,13.12741,-163.57155,-6.90817,23.42899,22.60114,88.43176,0
bike_v1,1.76351E+12,4.94881,12.1003,-2.40617,-134.3479,-65.54571,64.07043,22.60114,88.43176,0
bike_v1,1.76351E+12,1.64482,9.09078,0.31125,-134.89844,-79.56627,79.2847,22.60114,88.43176,0
bike_v1,1.76351E+12,3.11007,6.50265,6.40449,-121.41626,-42.40649,25.90156,22.60114,88.43176,0
bike_v1,1.76351E+12,-1.59693,6.37097,0.00239,-40.17953,-75.92827,-89.9141,22.60114,88.43176,0
bike_v1,1.76351E+12,4.38378,12.78743,0.67995,-138.88132,-70.86736,81.1833,22.60114,88.43176,0
bike_v1,1.76351E+12,-1.00078,7.18739,10.54406,-80.98143,-34.16093,-5.42191,22.60114,88.43176,0
bike_v1,1.76351E+12,1.64482,10.95826,2.10929,-116.44805,-76.28292,37.94695,22.60114,88.43176,0
bike_v1,1.76351E+12,-0.93374,14.32211,-10.97263,-84.70109,-52.44328,-4.86401,22.60114,88.43176,0
bike_v1,1.76351E+12,-5.19063,4.64475,-0.39744,-25.989,-41.74005,-85.62152,22.60114,88.43176,0
bike_v1,1.76351E+12,5.26246,8.0517,21.90934,-124.48349,-19.66371,13.50615,22.60114,88.43176,0
bike_v1,1.76351E+12,3.60088,11.39879,5.62398,-118.68559,-59.63609,32.63032,22.60114,88.43176,0
bike_v1,1.76351E+12,2.11887,4.69264,19.59654,-114.74152,-13.39139,6.17111,22.60114,88.43176,0
bike_v1,1.76351E+12,3.0143,9.92636,2.63362,-125.68074,-68.03854,48.85598,22.60114,88.43176,0
bike_v1,1.76351E+12,2.07577,8.81784,-2.75812,-118.31082,-68.6209,36.96527,22.60114,88.43176,0
bike_v1,1.76351E+12,0.52433,2.29843,7.9296,-103.19851,-16.1311,3.78307,22.60114,88.43176,0
bike_v1,1.76351E+12,1.19471,5.69341,14.65491,-102.41732,-21.1671,4.6606,22.60114,88.43176,0
bike_v1,1.76351E+12,3.99592,6.16986,11.78666,-125.38226,-26.36977,18.72774,22.60114,88.43176,0
bike_v1,1.76351E+12,2.34392,2.22182,14.48492,-136.87114,-8.61024,9.19182,22.60114,88.43176,0
bike_v1,1.76351E+12,-3.18668,7.77158,1.56102,-45.68956,-65.45868,-63.90174,22.60114,88.43176,0
bike_v1,1.76351E+12,1.31442,1.90578,12.07635,-124.86433,-8.91615,6.21175,22.60114,88.43176,0
bike_v1,1.76351E+12,0.14605,0.60573,-5.56412,-103.60863,-6.21086,1.50356,22.60114,88.43176,0
bike_v1,1.76351E+12,0.09337,8.50899,6.99586,-90.86629,-50.57141,0.76468,22.60114,88.43176,0
bike_v1,1.76351E+12,1.62327,6.58405,8.65743,-106.10629,-36.7775,10.61965,22.60114,88.43176,0
bike_v1,1.76351E+12,0.24421,0.87388,11.06839,-105.64514,-4.51321,1.26395,22.60114,88.43176,0
bike_v1,1.76351E+12,1.46286,4.68066,13.16093,-108.0459,-19.46707,6.34248,22.60114,88.43176,0
bike_v1,1.76351E+12,0.87628,1.30963,8.82503,-124.021,-8.40033,5.67058,22.60114,88.43176,0
bike_v1,1.76351E+12,0.35195,3.39019,4.81235,-96.79739,-35.09192,4.18284,22.60114,88.43176,0
bike_v1,1.76351E+12,1.29287,7.82425,4.98233,-104.39905,-56.66026,14.54688,22.60114,88.43176,0
bike_v1,1.76351E+12,2.3128,5.23373,13.31894,-114.95975,-21.1644,9.85103,22.60114,88.43176,0
bike_v1,1.76351E+12,0.54588,6.43083,8.96629,-95.58955,-35.59879,3.48393,22.60114,88.43176,0
bike_v1,1.76351E+12,4.80277,4.1707,12.51449,-140.53949,-17.28317,20.99563,22.60114,88.43176,0
bike_v1,1.76351E+12,-1.24259,-0.23463,-3.31358,10.45516,3.7932,-20.55603,22.60114,88.43176,0
bike_v1,1.76351E+12,6.04775,7.90565,7.51779,-134.62245,-39.33018,38.81524,22.60114,88.43176,0
bike_v1,1.76351E+12,-0.25379,6.18901,-3.48117,-86.06254,-60.57837,-4.16962,22.60114,88.43176,0
bike_v1,1.76351E+12,1.60172,3.46441,11.20008,-115.55,-17.02484,8.13868,22.60114,88.43176,0
bike_v1,1.76351E+12,2.87544,9.38048,9.84017,-110.98893,-42.45909,16.28911,22.60114,88.43176,0
bike_v1,1.76351E+12,-1.18752,-3.94086,-8.06128,72.01247,25.81039,-8.3801,22.60114,88.43176,0
bike_v1,1.76351E+12,2.77727,9.94312,-5.73651,-114.25288,-57.34053,25.8335,22.60114,88.43176,0
bike_v1,1.76351E+12,3.055,5.03261,31.99851,-121.50387,-8.89825,5.45368,22.60114,88.43176,0
bike_v1,1.76351E+12,0.58658,1.86269,-2.48279,-110.19704,-36.13469,13.29286,22.60114,88.43176,0
bike_v1,1.76351E+12,4.99191,10.96305,33.79416,-115.27927,-17.79269,8.40269,22.60114,88.43176,0
bike_v1,1.76351E+12,0.92416,-3.16274,0.43814,131.88286,72.07993,64.63469,22.60114,88.43176,0
bike_v1,1.76351E+12,-2.42772,-1.57538,-5.51624,31.66156,14.64906,-23.75449,22.60114,88.43176,0
bike_v1,1.76351E+12,1.3623,-1.17555,2.68151,141.59784,21.34785,26.9322,22.60114,88.43176,0
bike_v1,1.76351E+12,0.18914,2.41336,7.79073,-94.6209,-17.20677,1.39074,22.60114,88.43176,0
bike_v1,1.76351E+12,2.06859,0.59137,14.03002,-164.1086,-2.38782,8.38728,22.60114,88.43176,0
bike_v1,1.76351E+12,2.04944,-5.03261,-1.82678,128.18919,61.38644,48.28761,22.60114,88.43176,0
bike_v1,1.76351E+12,0.86431,0.15323,22.20383,-169.94934,-0.3951,2.22917,22.60114,88.43176,0
bike_v1,1.76351E+12,-1.32399,-6.19619,2.3966,66.39004,66.16013,-28.91835,22.60114,88.43176,0
bike_v1,1.76351E+12,2.86107,-8.19296,7.18261,114.96079,46.65997,21.71904,22.60114,88.43176,0
bike_v1,1.76351E+12,-1.09654,-4.6663,7.91762,75.40223,30.2757,-7.88497,22.60114,88.43176,0
bike_v1,1.76351E+12,3.31118,3.44765,14.35085,-134.60019,-13.17513,12.99252,22.60114,88.43176,0
bike_v1,1.76351E+12,1.64482,-0.0814,10.31183,177.17857,0.44664,9.06278,22.60114,88.43176,0
bike_v1,1.76351E+12,-2.81079,3.80439,13.59188,-52.68362,-15.32838,-11.68403,22.60114,88.43176,0
bike_v1,1.76351E+12,2.19069,1.78847,14.36521,-141.01982,-7.01651,8.6708,22.60114,88.43176,0
bike_v1,1.76351E+12,-0.4525,1.13964,11.37006,-68.27332,-5.71924,-2.27905,22.60114,88.43176,0
bike_v1,1.76351E+12,-0.27533,2.54264,16.6828,-83.77228,-8.66466,-0.94552,22.60114,88.43176,0
bike_v1,1.76351E+12,3.08134,-4.57532,14.58069,124.95993,17.06712,11.93275,22.60114,88.43176,0
bike_v1,1.76351E+12,-1.403,-2.11887,16.49844,56.31478,7.29231,-4.86065,22.60114,88.43176,0
bike_v1,1.76351E+12,1.76453,-1.59454,0.577,150.50911,40.65955,71.89219,22.60114,88.43176,0
bike_v1,1.76351E+12,4.0462,-0.56503,13.55836,172.16403,2.28682,16.6166,22.60114,88.43176,0
bike_v1,1.76351E+12,-1.075,-4.26407,11.77468,75.26259,19.8313,-5.21649,22.60114,88.43176,0
bike_v1,1.76351E+12,4.46519,1.35272,8.67898,-163.83678,-7.89066,27.22504,22.60114,88.43176,0
bike_v1,1.76351E+12,0.8691,-0.54827,-2.10929,148.89027,13.51364,22.39322,22.60114,88.43176,0
bike_v1,1.76351E+12,1.84354,-5.0805,1.87227,125.41944,62.65276,44.557,22.60114,88.43176,0
bike_v1,1.76351E+12,-1.43413,0.0407,24.05694,-1.62479,-0.09677,-3.41158,22.60114,88.43176,0
bike_v1,1.76351E+12,0.62249,0.31843,-1.87705,-153.50092,-9.14722,18.34721,22.60114,88.43176,0
bike_v1,1.76351E+12,0.03591,7.63272,18.26297,-90.28461,-22.68167,0.11267,22.60114,88.43176,0
bike_v1,1.76351E+12,2.61447,-4.21619,-1.63524,137.12988,53.81808,57.97576,22.60114,88.43176,0
bike_v1,1.76351E+12,-0.3735,-0.16041,9.52892,23.2357,0.9637,-2.24462,22.60114,88.43176,0
bike_v1,1.76351E+12,4.61841,-2.36308,8.03734,154.42479,14.30142,29.88254,22.60114,88.43176,0
bike_v1,1.76351E+12,-2.18112,-3.90015,2.5618,50.6111,49.21677,-40.41114,22.60114,88.43176,0
bike_v1,1.76351E+12,6.79474,-2.71981,14.619,158.9855,9.57639,24.92847,22.60114,88.43176,0
bike_v1,1.76351E+12,-3.47399,-0.79009,20.51113,12.74879,2.17499,-9.61301,22.60114,88.43176,0
bike_v1,1.76351E+12,2.63362,2.20506,5.23133,-142.32993,-20.63095,26.72217,22.60114,88.43176,0
bike_v1,1.76351E+12,0.48602,0.62728,4.13957,-128.03979,-8.55872,6.69638,22.60114,88.43176,0
bike_v1,1.76351E+12,1.61609,-0.52672,13.9965,161.99286,2.14096,6.58641,22.60114,88.43176,0
bike_v1,1.76351E+12,1.41018,-5.51863,12.29662,105.22919,24.03067,6.54214,22.60114,88.43176,0
bike_v1,1.76351E+12,3.08613,1.24977,10.64941,-158.30055,-6.43115,16.16123,22.60114,88.43176,0
bike_v1,1.76351E+12,0.51954,3.03345,2.79164,-102.67117,-46.89078,10.5425,22.60114,88.43176,0
bike_v1,1.76351E+12,3.85227,0.86191,5.33668,-168.23569,-7.46065,35.82357,22.60114,88.43176,0
bike_v1,1.76351E+12,-0.29928,2.09493,13.295,-81.8033,-8.95238,-1.28953,22.60114,88.43176,0
bike_v1,1.76351E+12,1.69031,-0.02634,4.90333,179.12366,0.29094,19.02043,22.60114,88.43176,0
bike_v1,1.76351E+12,3.16035,1.15401,13.12501,-160.15622,-4.88582,13.53842,22.60114,88.43176,0
bike_v1,1.76351E+12,2.3128,-2.91374,13.75229,128.96982,11.80154,9.54641,22.60114,88.43176,0
bike_v1,1.76351E+12,-1.9824,-4.29759,19.61809,64.85989,12.29549,-5.77013,22.60114,88.43176,0
bike_v1,1.76351E+12,0.50757,0.29928,5.19781,-149.54239,-3.27972,5.5773,22.60114,88.43176,0
bike_v1,1.76351E+12,0.36392,2.02789,5.02543,-100.69849,-21.92339,4.14187,22.60114,88.43176,0
bike_v1,1.76351E+12,7.40766,-1.13964,12.03086,171.70256,4.61163,31.62149,22.60114,88.43176,0
bike_v1,1.76351E+12,-1.67355,0.2083,11.15698,-7.06799,-1.05772,-8.53077,22.60114,88.43176,0
bike_v1,1.76351E+12,2.46124,-1.22823,4.53941,154.82576,13.37959,28.46629,22.60114,88.43176,0
bike_v1,1.76351E+12,1.38145,-1.0343,12.53604,143.29439,4.68829,6.28854,22.60114,88.43176,0
bike_v1,1.76351E+12,1.20189,1.59693,7.36696,-127.49937,-12.07588,9.26594,22.60114,88.43176,0
bike_v1,1.76351E+12,-0.25379,1.15401,5.97593,-77.44586,-10.92018,-2.43177,22.60114,88.43176,0
bike_v1,1.76351E+12,6.54335,-3.84509,19.97243,150.25012,10.36769,18.13979,22.60114,88.43176,0
bike_v1,1.76351E+12,0.06704,-8.837,13.20402,90.49319,33.79269,0.29089,22.60114,88.43176,0
bike_v1,1.76351E+12,0.31603,1.89621,4.79798,-99.93185,-21.52205,3.76853,22.60114,88.43176,0
bike_v1,1.76351E+12,4.07254,7.37893,9.19852,-123.36853,-36.26045,23.8808,22.60114,88.43176,0
bike_v1,1.76351E+12,1.60651,1.98958,12.9646,-129.20515,-8.65948,7.0638,22.60114,88.43176,0
bike_v1,1.76351E+12,-0.41899,1.90818,7.73327,-77.37109,-13.84129,-3.10123,22.60114,88.43176,0
bike_v1,1.76351E+12,0.4956,2.31998,1.86029,-106.51485,-50.31325,14.91765,22.60114,88.43176,0
bike_v1,1.76351E+12,5.50666,2.8898,18.82321,-152.79555,-8.38208,16.30665,22.60114,88.43176,0
bike_v1,1.76351E+12,-2.08774,1.85551,1.49159,-33.37486,-35.87291,-54.45611,22.60114,88.43176,0
bike_v1,1.76351E+12,-0.05267,3.35667,6.43561,-89.02467,-27.54474,-0.46893,22.60114,88.43176,0
bike_v1,1.76351E+12,1.10373,2.99993,9.57441,-110.82387,-17.28964,6.57596,22.60114,88.43176,0
bike_v1,1.76351E+12,3.19626,3.34949,5.97353,-136.93752,-26.30766,28.1499,22.60114,88.43176,0
bike_v1,1.76351E+12,1.05824,4.03662,7.55371,-105.95819,-27.88876,7.97495,22.60114,88.43176,0
bike_v1,1.76351E+12,0.48123,6.04057,8.9998,-95.1696,-33.83124,3.06079,22.60114,88.43176,0
bike_v1,1.76351E+12,0.44293,7.4723,13.10347,-93.73205,-29.68004,1.93599,22.60114,88.43176,0
bike_v1,1.76351E+12,0.96486,5.05177,4.63517,-104.08764,-46.85666,11.75884,22.60114,88.43176,0
bike_v1,1.76351E+12,0.64165,10.5297,13.36683,-94.11529,-38.19717,2.74825,22.60114,88.43176,0
bike_v1,1.76351E+12,1.901,12.94545,4.39097,-108.56138,-69.71503,23.4094,22.60114,88.43176,0
bike_v1,1.76351E+12,2.96402,10.35732,1.97522,-128.41451,-71.02197,56.32061,22.60114,88.43176,0
bike_v1,1.76351E+12,0.15562,9.98861,2.89459,-92.3873,-73.81686,3.07746,22.60114,88.43176,0
bike_v1,1.76351E+12,1.11091,4.92487,16.87673,-103.06022,-16.23473,3.76606,22.60114,88.43176,0
bike_v1,1.76351E+12,0.87149,3.82354,8.98783,-103.56767,-22.94911,5.53827,22.60114,88.43176,0
bike_v1,1.76351E+12,2.63362,9.55765,2.71024,-122.84782,-68.42632,44.17861,22.60114,88.43176,0
bike_v1,1.76351E+12,0.87388,8.32464,5.63356,-99.01209,-55.59563,8.81751,22.60114,88.43176,0
bike_v1,1.76351E+12,-0.71347,7.38611,2.85389,-78.38422,-68.28372,-14.03624,22.60114,88.43176,0
bike_v1,1.76351E+12,-1.02472,11.05642,7.13951,-81.82861,-56.88153,-8.16776,22.60114,88.43176,0
bike_v1,1.76351E+12,1.07021,2.05662,6.94558,-118.23549,-16.31216,8.75952,22.60114,88.43176,0
bike_v1,1.76351E+12,1.68312,4.63278,6.66785,-112.64011,-33.96667,14.16687,22.60114,88.43176,0
bike_v1,1.76351E+12,0.64643,7.34302,-0.06464,-134.77837,-84.94405,84.28941,22.60114,88.43176,0
bike_v1,1.76351E+12,-0.38307,5.59525,6.4428,-85.24688,-40.92265,-3.40265,22.60114,88.43176,0
bike_v1,1.76351E+12,1.58975,9.38766,13.40753,-100.9928,-34.81119,6.76207,22.60114,88.43176,0
bike_v1,1.76351E+12,1.6089,2.63841,3.36625,-125.91793,-35.26654,25.54554,22.60114,88.43176,0
bike_v1,1.76351E+12,2.94247,9.13627,8.16423,-113.09732,-46.47266,19.8197,22.60114,88.43176,0
bike_v1,1.76351E+12,-3.00951,7.32865,8.93756,-63.81869,-37.85115,-18.60974,22.60114,88.43176,0
bike_v1,1.76351E+12,1.51074,8.17859,1.06781,-125.32364,-77.25404,54.74677,22.60114,88.43176,0
bike_v1,1.76351E+12,0.22027,9.81383,9.086,-91.68538,-47.19699,1.38872,22.60114,88.43176,0
bike_v1,1.76351E+12,0.54827,4.8315,5.90889,-97.71104,-39.15141,5.30116,22.60114,88.43176,0
bike_v1,1.76351E+12,0.58897,4.19225,10.92714,-98.37298,-20.96176,3.08526,22.60114,88.43176,0
bike_v1,1.76351E+12,3.04064,9.21289,11.01812,-111.64853,-38.86981,15.42775,22.60114,88.43176,0
bike_v1,1.76351E+12,4.39336,3.12922,3.67271,-150.23495,-28.65511,50.10548,22.60114,88.43176,0
bike_v1,1.76351E+12,0.45011,12.62463,15.08826,-92.45176,-39.9073,1.70873,22.60114,88.43176,0
bike_v1,1.76351E+12,0.17238,2.53307,0.31603,-109.25354,-81.9115,28.61046,22.60114,88.43176,0
bike_v1,1.76351E+12,1.60412,3.96959,13.5033,-112.60194,-16.27353,6.77466,22.60114,88.43176,0
bike_v1,1.76351E+12,3.40934,7.33105,17.47767,-116.25634,-22.37659,11.03799,22.60114,88.43176,0
bike_v1,1.76351E+12,2.74615,5.04698,-4.03902,-126.67587,-45.93927,34.21199,22.60114,88.43176,0
bike_v1,1.76351E+12,2.25055,3.7182,15.04037,-121.77528,-13.73886,8.51025,22.60114,88.43176,0
bike_v1,1.76351E+12,0.02873,12.0572,16.39549,-90.15834,-36.33061,0.1004,22.60114,88.43176,0
bike_v1,1.76351E+12,1.92973,3.07416,8.43956,-123.37731,-19.5495,12.87942,22.60114,88.43176,0
bike_v1,1.76351E+12,-0.76375,11.62385,4.16112,-81.54891,-70.00045,-10.40055,22.60114,88.43176,0
bike_v1,1.76351E+12,0.70868,9.89284,7.44118,-95.8689,-52.92597,5.44033,22.60114,88.43176,0
bike_v1,1.76351E+12,0.61052,5.04458,4.63517,-99.03734,-47.17633,7.50351,22.60114,88.43176,0
bike_v1,1.76351E+12,1.58496,2.24337,8.81306,-125.93728,-14.06488,10.19523,22.60114,88.43176,0
bike_v1,1.76351E+12,1.51314,9.31105,5.01106,-105.48314,-60.65595,16.80216,22.60114,88.43176,0
bike_v1,1.76351E+12,1.93691,7.94157,10.35013,-105.97614,-37.02354,10.59965,22.60114,88.43176,0
bike_v1,1.76351E+12,1.97282,4.03902,13.54639,-116.75062,-16.43866,8.28599,22.60114,88.43176,0
bike_v1,1.76351E+12,-0.14844,5.60483,-11.54005,-88.3704,-25.90327,-0.73694,22.60114,88.43176,0
bike_v1,1.76351E+12,1.2402,5.26006,20.05144,-103.56193,-14.67227,3.53928,22.60114,88.43176,0
bike_v1,1.76351E+12,2.29604,4.42448,9.76834,-119.07005,-23.79387,13.22721,22.60114,88.43176,0
bike_v1,1.76351E+12,-5.13556,16.18002,-2.56419,-47.99181,-70.46701,-63.46701,22.60114,88.43176,0
bike_v1,1.76351E+12,1.03669,8.24802,21.30361,-97.50688,-21.14189,2.78596,22.60114,88.43176,0
bike_v1,1.76351E+12,2.32956,7.15148,11.16895,-110.16603,-32.07994,11.78153,22.60114,88.43176,0
bike_v1,1.76351E+12,0.61292,14.21916,5.24809,-95.46584,-69.61523,6.6613,22.60114,88.43176,0
bike_v1,1.76351E+12,0.64883,-0.06943,8.09719,173.89861,0.48972,4.58133,22.60114,88.43176,0
bike_v1,1.76351E+12,0.7015,9.35893,12.58153,-94.98303,-36.60162,3.1913,22.60114,88.43176,0
bike_v1,1.76351E+12,5.46836,5.69341,-1.25217,-149.49641,-45.42337,77.10252,22.60114,88.43176,0
bike_v1,1.76351E+12,0.20351,1.53468,8.56167,-97.63361,-10.15956,1.36164,22.60114,88.43176,0
bike_v1,1.76351E+12,-5.79397,19.13925,2.54743,-47.25583,-71.7012,-66.26638,22.60114,88.43176,0
bike_v1,1.76351E+12,9.56484,1.65918,26.38171,-170.36349,-3.3837,19.92839,22.60114,88.43176,0
bike_v1,1.76351E+12,-0.29688,5.18584,15.69639,-86.60766,-18.27969,-1.08356,22.60114,88.43176,0
bike_v1,1.76351E+12,-1.28569,16.61097,4.17788,-77.19483,-75.25666,-17.10503,22.60114,88.43176,0
bike_v1,1.76351E+12,4.78362,2.24816,10.74278,-155.72926,-10.82291,24.00276,22.60114,88.43176,0
bike_v1,1.76351E+12,-1.5275,11.85369,5.10683,-75.79539,-65.78745,-16.65241,22.60114,88.43176,0
bike_v1,1.76351E+12,3.83072,3.83312,20.46324,-135.46486,-10.43239,10.60306,22.60114,88.43176,0
bike_v1,1.76351E+12,0.54348,3.77087,19.63964,-98.30079,-10.86462,1.58513,22.60114,88.43176,0
bike_v1,1.76351E+12,3.36864,12.469,2.7653,-125.58769,-70.73398,50.61758,22.60114,88.43176,0
bike_v1,1.76351E+12,1.29047,5.77003,-1.71425,-117.97718,-69.60145,36.9722,22.60114,88.43176,0
bike_v1,1.76351E+12,2.56419,6.6487,27.35615,-111.4873,-13.60303,5.35489,22.60114,88.43176,0
bike_v1,1.76351E+12,1.72383,4.74291,6.11719,-113.19211,-36.73314,15.73786,22.60114,88.43176,0
bike_v1,1.76351E+12,1.71185,8.98544,5.48512,-106.80187,-57.40177,17.33266,22.60114,88.43176,0
bike_v1,1.76351E+12,0.40462,10.39562,2.81798,-96.24368,-74.68484,8.17099,22.60114,88.43176,0
bike_v1,1.76351E+12,1.20189,11.24078,1.98479,-111.7145,-78.33676,31.19695,22.60114,88.43176,0
bike_v1,1.76351E+12,2.07817,10.68772,27.14306,-101.54405,-21.43527,4.37822,22.60114,88.43176,0
bike_v1,1.76351E+12,2.727,5.60243,5.87298,-121.36081,-40.86676,24.90683,22.60114,88.43176,0
bike_v1,1.76351E+12,-1.10612,8.32464,1.81002,-67.45365,-75.7044,-31.42957,22.60114,88.43176,0
bike_v1,1.76351E+12,-0.84755,10.6949,-18.61013,-85.00908,-29.85956,-2.6076,22.60114,88.43176,0
bike_v1,1.76351E+12,3.01191,5.83946,30.28186,-117.60557,-10.86244,5.68009,22.60114,88.43176,0
bike_v1,1.76351E+12,3.73256,5.42287,15.65568,-125.7599,-18.6207,13.40987,22.60114,88.43176,0
bike_v1,1.76351E+12,1.94649,13.69962,-5.14275,-106.92436,-68.13036,20.73123,22.60114,88.43176,0
bike_v1,1.76351E+12,2.39181,7.13712,12.78025,-110.23054,-28.76321,10.60021,22.60114,88.43176,0
bike_v1,1.76351E+12,1.89142,2.50912,19.79765,-127.19654,-7.19067,5.45733,22.60114,88.43176,0
bike_v1,1.76351E+12,3.7182,4.25689,-4.92008,-136.96754,-34.61601,37.07899,22.60114,88.43176,0
bike_v1,1.76351E+12,-0.46926,9.93594,-2.16196,-81.01453,-77.44747,-12.24634,22.60114,88.43176,0
bike_v1,1.76351E+12,3.06218,8.09719,7.97509,-115.7924,-43.46611,21.00523,22.60114,88.43176,0
bike_v1,1.76351E+12,-0.08859,3.42371,16.58463,-88.49703,-11.66405,-0.30604,22.60114,88.43176,0
bike_v1,1.76351E+12,3.6344,7.23288,-7.33583,-122.44321,-41.46007,26.35524,22.60114,88.43176,0
bike_v1,1.76351E+12,-1.43173,3.14598,11.96622,-64.9977,-14.63019,-6.82288,22.60114,88.43176,0
bike_v1,1.76351E+12,6.44998,5.31034,-4.75967,-147.96489,-33.52307,53.57504,22.60114,88.43176,0
bike_v1,1.76351E+12,2.25773,6.6487,18.83997,-109.488,-19.3103,6.83359,22.60114,88.43176,0
bike_v1,1.76351E+12,3.86185,6.09803,5.19542,-130.23227,-43.28928,36.62408,22.60114,88.43176,0
bike_v1,1.76351E+12,-3.27287,7.12754,15.44978,-63.7844,-24.29062,-11.96068,22.60114,88.43176,0
bike_v1,1.76351E+12,7.62553,5.41808,4.36463,-152.26506,-31.66014,60.21445,22.60114,88.43176,0
bike_v1,1.76351E+12,-2.62405,6.03578,5.93523,-60.94211,-42.92578,-23.85088,22.60114,88.43176,0
bike_v1,1.76351E+12,-2.57377,7.74045,-11.84651,-69.36958,-32.55823,-12.25757,22.60114,88.43176,0
bike_v1,1.76351E+12,-0.9505,0.42856,12.16973,-24.23918,-2.01074,-4.46593,22.60114,88.43176,0
bike_v1,1.76351E+12,1.55863,9.32542,10.92235,-101.4198,-40.20549,8.12131,22.60114,88.43176,0
bike_v1,1.76351E+12,0.38307,5.45878,1.09654,-103.86996,-77.98763,19.2566,22.60114,88.43176,0
bike_v1,1.76351E+12,-1.652,12.58871,-7.00304,-77.57588,-60.24927,-13.27325,22.60114,88.43176,0
bike_v1,1.76351E+12,-0.19632,2.60729,22.86223,-85.67526,-6.50586,-0.492,22.60114,88.43176,0
bike_v1,1.76351E+12,3.25372,-2.59292,1.82917,150.1658,34.78625,60.65626,22.60114,88.43176,0
bike_v1,1.76351E+12,1.46046,9.01178,14.89672,-100.22225,-31.05063,5.59934,22.60114,88.43176,0
bike_v1,1.76351E+12,-0.09337,8.31027,-0.76854,-85.32323,-84.67767,-6.92722,22.60114,88.43176,0
bike_v1,1.76351E+12,1.1133,3.84509,24.11919,-106.28171,-9.04842,2.64281,22.60114,88.43176,0
bike_v1,1.76351E+12,3.6344,0.26336,12.90475,-175.90761,-1.12537,15.72895,22.60114,88.43176,0
bike_v1,1.76351E+12,0.95289,7.62074,6.47632,-99.62848,-49.3382,8.37016,22.60114,88.43176,0
bike_v1,1.76351E+12,1.98479,9.07642,13.59188,-103.94616,-33.4557,8.30806,22.60114,88.43176,0
bike_v1,1.76351E+12,2.71742,1.28329,12.42591,-154.96619,-5.76114,12.33579,22.60114,88.43176,0
bike_v1,1.76351E+12,-2.79882,9.59117,4.43885,-62.26995,-61.31592,-32.2326,22.60114,88.43176,0
bike_v1,1.76351E+12,0.22266,8.3821,-3.90973,-92.87259,-64.95831,3.25949,22.60114,88.43176,0
bike_v1,1.76351E+12,-2.29125,5.19542,25.63472,-65.88991,-11.41272,-5.10757,22.60114,88.43176,0
bike_v1,1.76351E+12,0.42377,-0.65122,2.73897,123.62981,13.22273,8.79508,22.60114,88.43176,0
bike_v1,1.76351E+12,-5.08768,4.89135,-2.14042,-31.73304,-41.54675,-67.18323,22.60114,88.43176,0
bike_v1,1.76351E+12,1.73101,6.54575,11.67892,-106.2075,-29.00482,8.4308,22.60114,88.43176,0
bike_v1,1.76351E+12,-0.75417,2.88262,7.19458,-74.60063,-21.72641,-5.98419,22.60114,88.43176,0
bike_v1,1.76351E+12,2.01831,3.85945,6.07409,-120.59274,-31.08911,18.38073,22.60114,88.43176,0
bike_v1,1.76351E+12,0.95529,4.98233,17.36275,-101.14294,-15.98817,3.1492,22.60114,88.43176,0
bike_v1,1.76351E+12,-0.71108,4.16591,1.77171,-71.50603,-65.37981,-21.86813,22.60114,88.43176,0
bike_v1,1.76351E+12,0,2.40138,9.50259,-90,-14.18221,0,22.60114,88.43176,0
bike_v1,1.76351E+12,3.47399,6.98628,2.71742,-131.99005,-57.73513,51.9668,22.60114,88.43176,0
bike_v1,1.76351E+12,1.8579,3.15795,18.58858,-120.74715,-9.59482,5.70767,22.60114,88.43176,0
bike_v1,1.76351E+12,-0.23703,10.99657,1.25696,-82.70026,-83.36523,-10.67895,22.60114,88.43176,0
bike_v1,1.76351E+12,2.67193,9.71806,24.97631,-106.10345,-21.15063,6.10619,22.60114,88.43176,0
bike_v1,1.76351E+12,6.11719,-0.50757,8.58321,175.55629,2.75705,35.47716,22.60114,88.43176,0
bike_v1,1.76351E+12,-1.02711,5.10923,0.79487,-55.39172,-75.73752,-52.26397,22.60114,88.43176,0
bike_v1,1.76351E+12,7.30471,3.60327,15.69399,-154.77487,-11.75839,24.95944,22.60114,88.43176,0
bike_v1,1.76351E+12,9.26077,7.56089,10.59195,-145.53575,-28.25337,41.16391,22.60114,88.43176,0
bike_v1,1.76351E+12,-1.17555,5.25767,17.11854,-77.01463,-17.03566,-3.92841,22.60114,88.43176,0
bike_v1,1.76351E+12,3.44286,13.45781,2.93769,-124.74268,-71.41225,49.52692,22.60114,88.43176,0
bike_v1,1.76351E+12,6.39252,3.17711,20.69787,-154.07382,-8.34372,17.16325,22.60114,88.43176,0
bike_v1,1.76351E+12,3.70622,-3.39019,2.34392,146.83026,37.70747,57.68955,22.60114,88.43176,0
bike_v1,1.76351E+12,2.69587,7.35259,6.24168,-116.3123,-47.24022,23.3602,22.60114,88.43176,0
bike_v1,1.76351E+12,6.16268,2.61207,-4.72855,-160.50519,-18.58636,52.50139,22.60114,88.43176,0
bike_v1,1.76351E+12,5.34146,1.91057,18.53352,-160.61488,-5.65701,16.07728,22.60114,88.43176,0
bike_v1,1.76351E+12,-0.52433,3.48117,9.01417,-81.02733,-21.0835,-3.32899,22.60114,88.43176,0
bike_v1,1.76351E+12,3.1388,8.69095,11.27908,-113.0273,-36.58757,15.55108,22.60114,88.43176,0
bike_v1,1.76351E+12,3.50272,9.29669,-6.70855,-118.46471,-50.85278,27.57027,22.60114,88.43176,0
bike_v1,1.76351E+12,6.05015,5.9879,3.89058,-145.21271,-39.77565,57.25675,22.60114,88.43176,0
bike_v1,1.76351E+12,0.81642,3.74453,20.1903,-102.43824,-10.49841,2.31557,22.60114,88.43176,0
bike_v1,1.76351E+12,0.89783,5.69341,0.7015,-123.45895,-78.68328,51.99831,22.60114,88.43176,0
bike_v1,1.76351E+12,0.96965,9.03811,19.99158,-96.51849,-24.30226,2.77684,22.60114,88.43176,0
bike_v1,1.76351E+12,3.96719,9.43794,14.62618,-115.43227,-31.91362,15.17573,22.60114,88.43176,0
bike_v1,1.76351E+12,5.66708,-4.54898,3.73256,149.14145,33.83644,56.62952,22.60114,88.43176,0
bike_v1,1.76351E+12,-7.84101,15.62456,25.11518,-60.54659,-30.70387,-17.33847,22.60114,88.43176,0
bike_v1,1.76351E+12,6.60321,5.01825,8.69095,-146.44521,-24.69113,37.22683,22.60114,88.43176,0
bike_v1,1.76351E+12,-1.16358,7.87692,20.51591,-81.20187,-20.97313,-3.24611,22.60114,88.43176,0
bike_v1,1.76351E+12,-0.59616,11.1881,-12.66533,-86.27783,-41.42479,-2.69492,22.60114,88.43176,0
bike_v1,1.76351E+12,0.42138,7.9296,37.33279,-93.08702,-11.99084,0.64668,22.60114,88.43176,0
bike_v1,1.76351E+12,6.95516,-0.23463,-4.80037,178.35529,1.59036,55.38697,22.60114,88.43176,0
bike_v1,1.76351E+12,-3.33033,8.05888,7.18021,-61.33539,-45.51622,-24.88287,22.60114,88.43176,0
bike_v1,1.76351E+12,1.27372,10.71405,12.28944,-98.22603,-40.93068,5.91718,22.60114,88.43176,0
bike_v1,1.76351E+12,-5.22175,8.00382,12.38521,-53.3917,-30.77289,-22.86088,22.60114,88.43176,0
bike_v1,1.76351E+12,6.53138,-0.31843,3.03345,177.7724,2.53181,65.08782,22.60114,88.43176,0
bike_v1,1.76351E+12,-4.34069,12.86165,25.03138,-69.87825,-26.85152,-9.83782,22.60114,88.43176,0
bike_v1,1.76351E+12,-0.33758,1.49877,-18.10974,-77.27776,-4.73022,-1.06793,22.60114,88.43176,0
bike_v1,1.76351E+12,-2.6839,3.03106,26.013,-48.29942,-6.6114,-5.89067,22.60114,88.43176,0
bike_v1,1.76351E+12,-0.98402,9.97185,3.09091,-76.21567,-71.98067,-17.65928,22.60114,88.43176,0
bike_v1,1.76351E+12,0.85234,2.05183,14.08269,-112.71272,-8.27466,3.46352,22.60114,88.43176,0
bike_v1,1.76351E+12,-0.9481,3.80678,-15.21515,-75.73135,-14.02074,-3.56567,22.60114,88.43176,0
bike_v1,1.76351E+12,-2.08296,3.43329,22.06257,-58.51578,-8.80664,-5.39338,22.60114,88.43176,0
bike_v1,1.76351E+12,9.11233,4.68066,6.1507,-157.61035,-23.06194,55.98117,22.60114,88.43176,0
bike_v1,1.76351E+12,0.15323,-0.9098,11.65737,99.57939,4.4622,0.75307,22.60114,88.43176,0
bike_v1,1.76351E+12,-2.05422,7.52258,-2.23858,-57.97242,-68.0069,-42.54095,22.60114,88.43176,0
bike_v1,1.76351E+12,-0.35913,4.94163,18.24142,-85.74373,-15.15491,-1.12787,22.60114,88.43176,0
bike_v1,1.76351E+12,3.10767,0.73502,5.72454,-167.26884,-6.43817,28.49617,22.60114,88.43176,0
bike_v1,1.76351E+12,1.30723,8.83939,1.1995,-121.10843,-78.65092,47.46105,22.60114,88.43176,0
bike_v1,1.76351E+12,-2.81558,7.49864,3.56018,-56.90067,-58.81317,-38.33885,22.60114,88.43176,0
bike_v1,1.76351E+12,-4.20661,4.45322,2.34871,-35.0999,-42.74747,-60.82372,22.60114,88.43176,0
bike_v1,1.76351E+12,3.51948,4.68785,25.61077,-127.2816,-10.2782,7.82467,22.60114,88.43176,0
bike_v1,1.76351E+12,-2.17394,-2.79882,-9.45231,51.17746,16.09633,-12.95221,22.60114,88.43176,0
bike_v1,1.76351E+12,-0.64165,11.53766,14.27662,-86.21668,-38.91516,-2.57336,22.60114,88.43176,0
bike_v1,1.76351E+12,-0.26815,1.07021,7.56568,-75.84129,-8.04642,-2.02989,22.60114,88.43176,0
bike_v1,1.76351E+12,2.49476,7.62553,12.12663,-110.17996,-31.63,11.62502,22.60114,88.43176,0
bike_v1,1.76351E+12,6.359,5.46596,5.33668,-146.28505,-33.36174,49.99555,22.60114,88.43176,0
bike_v1,1.76351E+12,-0.75896,3.3016,12.49294,-76.76147,-14.7775,-3.47652,22.60114,88.43176,0
bike_v1,1.76351E+12,5.77242,7.07008,5.49469,-138.14481,-41.57767,46.41202,22.60114,88.43176,0
bike_v1,1.76351E+12,1.05345,0.99599,8.99741,-136.78543,-6.27425,6.67799,22.60114,88.43176,0
bike_v1,1.76351E+12,6.91445,2.42533,22.89336,-160.9873,-5.79088,16.80583,22.60114,88.43176,0
bike_v1,1.76351E+12,1.10852,5.98311,2.78206,-108.91186,-63.41028,21.72486,22.60114,88.43176,0
bike_v1,1.76351E+12,3.76129,7.80989,13.16093,-118.23046,-29.70781,15.94953,22.60114,88.43176,0
bike_v1,1.76351E+12,4.11084,9.1267,-0.22745,-142.87982,-65.71945,86.83311,22.60114,88.43176,0
bike_v1,1.76351E+12,-0.39265,4.19225,3.65834,-82.83436,-48.728,-6.12609,22.60114,88.43176,0
bike_v1,1.76351E+12,4.77643,5.54258,19.1584,-131.75868,-15.67996,13.99917,22.60114,88.43176,0
bike_v1,1.76351E+12,3.56257,4.37181,3.90734,-136.93864,-39.58386,42.35746,22.60114,88.43176,0
bike_v1,1.76351E+12,1.48441,1.63045,11.24796,-132.59215,-8.17795,7.51794,22.60114,88.43176,0
bike_v1,1.76351E+12,4.23774,8.28394,4.13718,-130.00551,-54.43811,45.68792,22.60114,88.43176,0
bike_v1,1.76351E+12,-0.80924,5.31034,5.82749,-79.35681,-42.06927,-7.90588,22.60114,88.43176,0
bike_v1,1.76351E+12,4.34069,-2.00634,12.62702,155.75092,8.54546,18.97102,22.60114,88.43176,0
bike_v1,1.76351E+12,3.0957,7.0605,9.90002,-116.8896,-34.24226,17.36428,22.60114,88.43176,0
bike_v1,1.76351E+12,3.82833,10.00058,3.28963,-127.96401,-63.21873,49.32796,22.60114,88.43176,0
bike_v1,1.76351E+12,-1.04627,8.05409,17.19037,-82.08862,-25.06352,-3.48293,22.60114,88.43176,0
bike_v1,1.76351E+12,3.553,9.97424,-0.15323,-141.2,-70.3764,87.53056,22.60114,88.43176,0
bike_v1,1.76351E+12,0.80685,3.47159,14.86081,-103.31605,-13.13023,3.10774,22.60114,88.43176,0
bike_v1,1.76351E+12,4.94163,9.53371,0.78051,-142.43814,-62.3114,81.02452,22.60114,88.43176,0
bike_v1,1.76351E+12,-0.11013,-2.25773,10.2831,87.16301,12.38255,-0.61362,22.60114,88.43176,0
bike_v1,1.76351E+12,4.42448,5.16669,11.73638,-132.69539,-22.38818,20.65589,22.60114,88.43176,0
bike_v1,1.76351E+12,3.0957,12.44267,-9.76116,-109.19423,-50.54568,17.59616,22.60114,88.43176,0
bike_v1,1.76351E+12,0.16759,0.72544,15.33486,-103.01805,-2.7083,0.62616,22.60114,88.43176,0
bike_v1,1.76351E+12,4.43167,10.71645,16.68759,-115.04672,-31.82652,14.87256,22.60114,88.43176,0
bike_v1,1.76351E+12,2.11887,4.45082,8.18099,-117.60072,-27.77428,14.52049,22.60114,88.43176,0
bike_v1,1.76351E+12,-3.20823,0.89304,7.06768,-15.047,-6.56337,-24.4147,22.60114,88.43176,0
bike_v1,1.76351E+12,8.71011,10.38365,13.6685,-134.87775,-32.64592,32.5069,22.60114,88.43176,0
bike_v1,1.76351E+12,2.82516,7.27119,11.80341,-113.52116,-30.92593,13.46056,22.60114,88.43176,0
bike_v1,1.76351E+12,3.98395,8.34619,14.07072,-118.01408,-29.71445,15.80882,22.60114,88.43176,0
bike_v1,1.76351E+12,2.18112,3.67749,4.87699,-124.89886,-34.54147,24.09545,22.60114,88.43176,0
bike_v1,1.76351E+12,4.22098,8.27197,3.09331,-132.98712,-57.68135,53.76448,22.60114,88.43176,0
bike_v1,1.76351E+12,1.26174,4.75967,7.53216,-106.5837,-31.93239,9.50957,22.60114,88.43176,0
bike_v1,1.76351E+12,2.5618,4.71658,1.69509,-134.7897,-56.92445,56.5081,22.60114,88.43176,0
bike_v1,1.76351E+12,3.77087,7.2664,-5.16429,-126.60305,-48.65202,36.1362,22.60114,88.43176,0
bike_v1,1.76351E+12,0.36392,-1.10852,13.56794,108.21439,4.66908,1.53642,22.60114,88.43176,0
bike_v1,1.76351E+12,4.64954,9.2919,-10.3645,-121.59414,-39.28233,24.16112,22.60114,88.43176,0
bike_v1,1.76351E+12,2.34871,9.11473,-9.26795,-108.05225,-43.63133,14.22069,22.60114,88.43176,0
bike_v1,1.76351E+12,3.69425,8.30788,39.44208,-114.31199,-11.84425,5.35087,22.60114,88.43176,0
bike_v1,1.76351E+12,-0.64883,3.36385,-5.26006,-77.75593,-32.40323,-7.03192,22.60114,88.43176,0
bike_v1,1.76351E+12,0.4118,6.92164,16.91025,-93.58691,-22.25412,1.39501,22.60114,88.43176,0
bike_v1,1.76351E+12,5.81791,14.24789,3.21302,-133.22702,-64.99252,61.08974,22.60114,88.43176,0
bike_v1,1.76351E+12,-1.38624,5.19302,5.9855,-72.03059,-40.20541,-13.0398,22.60114,88.43176,0
bike_v1,1.76351E+12,-1.38864,0.0838,-4.2545,-3.39605,-1.07268,-18.07629,22.60114,88.43176,0
bike_v1,1.76351E+12,1.2785,7.23767,8.7556,-101.94151,-39.28177,8.30769,22.60114,88.43176,0
bike_v1,1.76351E+12,1.4054,8.52815,-4.37181,-106.11067,-61.69885,17.82091,22.60114,88.43176,0
bike_v1,1.76351E+12,-1.07978,-1.18513,11.16416,47.51315,6.0316,-5.5244,22.60114,88.43176,0
bike_v1,1.76351E+12,6.18183,10.33098,8.2576,-129.26297,-45.04384,36.81936,22.60114,88.43176,0
bike_v1,1.76351E+12,2.13084,-1.60172,10.29746,143.46947,8.66063,11.69113,22.60114,88.43176,0
bike_v1,1.76351E+12,2.53307,7.49625,21.20544,-109.40173,-19.3416,6.81191,22.60114,88.43176,0
bike_v1,1.76351E+12,1.27611,14.48971,-9.12191,-97.87756,-57.55693,7.96371,22.60114,88.43176,0
bike_v1,1.76351E+12,2.3128,1.6089,26.54691,-145.24191,-3.45517,4.97911,22.60114,88.43176,0
bike_v1,1.76351E+12,-1.23541,5.52103,-4.49392,-72.85643,-49.83026,-15.37128,22.60114,88.43176,0
bike_v1,1.76351E+12,1.50116,-2.31759,8.48984,123.68092,15.0462,10.02734,22.60114,88.43176,0
bike_v1,1.76351E+12,2.08774,3.13162,2.09493,-133.91394,-46.63695,44.90161,22.60114,88.43176,0
bike_v1,1.76351E+12,3.79002,13.51048,5.99508,-117.40466,-62.3018,32.3006,22.60114,88.43176,0
bike_v1,1.76351E+12,1.85551,10.64701,5.01346,-107.77854,-63.33902,20.30977,22.60114,88.43176,0
bike_v1,1.76351E+12,4.9967,3.42131,17.11615,-146.27953,-10.86185,16.27405,22.60114,88.43176,0
bike_v1,1.76351E+12,4.43167,8.77236,-8.49223,-122.97054,-42.48308,27.55779,22.60114,88.43176,0
bike_v1,1.76351E+12,0.73741,0.59376,25.04814,-141.16843,-1.35735,1.68629,22.60114,88.43176,0
bike_v1,1.76351E+12,1.03669,3.55778,23.08729,-106.37132,-8.75177,2.57103,22.60114,88.43176,0
bike_v1,1.76351E+12,6.11958,5.00149,-7.48188,-145.14268,-27.35892,39.28043,22.60114,88.43176,0
bike_v1,1.76351E+12,-1.62087,0.1245,-4.40773,-4.30125,-1.51855,-20.19025,22.60114,88.43176,0
bike_v1,1.76351E+12,4.02465,5.82749,-9.51695,-127.92301,-29.42171,22.92316,22.60114,88.43176,0
bike_v1,1.76351E+12,1.37427,7.12036,34.70395,-101.07458,-11.58588,2.26772,22.60114,88.43176,0
bike_v1,1.76351E+12,6.60321,9.51216,3.71101,-139.68747,-51.46959,60.66395,22.60114,88.43176,0
bike_v1,1.76351E+12,1.17316,10.1155,6.63673,-100.09145,-56.32581,10.02449,22.60114,88.43176,0
bike_v1,1.76351E+12,5.52821,12.75391,9.86411,-121.14082,-48.43985,29.26788,22.60114,88.43176,0
bike_v1,1.76351E+12,-2.71024,1.50356,9.31823,-28.50524,-8.80716,-16.21723,22.60114,88.43176,0
bike_v1,1.76351E+12,4.94163,11.35809,7.35978,-123.07067,-52.02833,33.87891,22.60114,88.43176,0
bike_v1,1.76351E+12,-2.58574,8.86333,-1.13006,-47.45448,-72.33965,-66.39288,22.60114,88.43176,0
bike_v1,1.76351E+12,6.12916,10.44351,13.10347,-124.98042,-35.82669,25.06788,22.60114,88.43176,0
bike_v1,1.76351E+12,-2.16436,3.2226,14.36282,-55.58689,-12.50934,-8.56953,22.60114,88.43176,0
bike_v1,1.76351E+12,3.37104,9.2081,-2.84671,-127.72669,-64.39782,49.82024,22.60114,88.43176,0
bike_v1,1.76351E+12,-1.47722,2.3966,21.59331,-58.22692,-6.31857,-3.91357,22.60114,88.43176,0
bike_v1,1.76351E+12,-3.14838,9.18895,-4.14436,-58.38628,-60.47281,-37.22308,22.60114,88.43176,0
bike_v1,1.76351E+12,2.36068,2.93769,11.00136,-129.61368,-14.63249,12.11094,22.60114,88.43176,0
bike_v1,1.76351E+12,-1.68791,11.97101,15.98608,-80.66721,-36.67505,-6.02732,22.60114,88.43176,0
bike_v1,1.76351E+12,3.304,4.35266,-4.87459,-133.10144,-36.46962,34.12939,22.60114,88.43176,0
bike_v1,1.76351E+12,-2.08774,9.1243,23.69302,-76.5078,-20.98775,-5.03569,22.60114,88.43176,0
bike_v1,1.76351E+12,0.90261,10.6925,10.08677,-96.26801,-46.55569,5.11349,22.60114,88.43176,0
bike_v1,1.76351E+12,0.46208,9.90002,15.45697,-93.00419,-32.62752,1.71233,22.60114,88.43176,0
bike_v1,1.76351E+12,-1.96085,9.60314,-3.13162,-65.06957,-68.95552,-32.05261,22.60114,88.43176,0
bike_v1,1.76351E+12,-4.45322,11.315,10.75236,-63.02092,-44.19363,-22.49746,22.60114,88.43176,0
bike_v1,1.76351E+12,4.03902,5.72214,12.58632,-127.23829,-23.40723,17.79172,22.60114,88.43176,0
bike_v1,1.76351E+12,-5.76763,7.40766,-10.12508,-47.55999,-32.4445,-29.66748,22.60114,88.43176,0
bike_v1,1.76351E+12,-4.07493,6.38773,12.47618,-55.12426,-25.95181,-18.08791,22.60114,88.43176,0
bike_v1,1.76351E+12,-1.74777,3.35907,2.2697,-52.80489,-49.54202,-37.59779,22.60114,88.43176,0
bike_v1,1.76351E+12,1.96085,4.44124,-4.79798,-118.70614,-40.59175,22.22899,22.60114,88.43176,0
bike_v1,1.76351E+12,0.84994,3.20344,20.85829,-104.97411,-8.72421,2.33342,22.60114,88.43176,0
bike_v1,1.76351E+12,1.05345,5.38695,-10.33816,-101.98774,-27.40178,5.8183,22.60114,88.43176,0
bike_v1,1.76351E+12,0.97205,1.31681,15.9813,-126.51251,-4.70171,3.48067,22.60114,88.43176,0
bike_v1,1.76351E+12,-3.35188,13.55836,5.64792,-64.43615,-64.1545,-30.68793,22.60114,88.43176,0
bike_v1,1.76351E+12,-2.91135,5.74608,17.08502,-62.2011,-18.34262,-9.67052,22.60114,88.43176,0
bike_v1,1.76351E+12,2.73178,18.96926,1.79086,-125.2747,-80.22958,56.75254,22.60114,88.43176,0
bike_v1,1.76351E+12,2.25294,-0.77333,20.0251,161.10052,2.19769,6.41913,22.60114,88.43176,0
bike_v1,1.76351E+12,7.4723,12.51928,3.08373,-139.77776,-57.14996,67.57463,22.60114,88.43176,0
bike_v1,1.76351E+12,-1.91536,0.01676,9.09078,-0.49775,-0.10336,-11.89778,22.60114,88.43176,0
bike_v1,1.76351E+12,5.8227,0.84276,8.51857,-172.25993,-4.66928,34.35378,22.60114,88.43176,0
bike_v1,1.76351E+12,-1.03669,14.44901,-13.70441,-84.67738,-46.43336,-4.32599,22.60114,88.43176,0
bike_v1,1.76351E+12,2.29125,1.34554,26.22848,-149.62967,-2.92563,4.99253,22.60114,88.43176,0
bike_v1,1.76351E+12,0.62968,2.6025,6.23929,-104.34242,-22.53876,5.76283,22.60114,88.43176,0
bike_v1,1.76351E+12,1.30723,10.94868,-5.39174,-102.18246,-63.12762,13.62845,22.60114,88.43176,0
bike_v1,1.76351E+12,4.72615,6.53138,27.29151,-126.51808,-13.26849,9.82465,22.60114,88.43176,0
bike_v1,1.76351E+12,4.43167,10.76194,2.31759,-133.79401,-65.07562,62.39221,22.60114,88.43176,0
bike_v1,1.76351E+12,3.83791,1.92733,9.13867,-154.21812,-11.00369,22.78062,22.60114,88.43176,0
bike_v1,1.76351E+12,3.7565,9.32542,-12.29183,-115.29254,-35.96246,16.99365,22.60114,88.43176,0
bike_v1,1.76351E+12,6.20098,5.79636,31.00012,-137.43294,-10.38959,11.31163,22.60114,88.43176,0
bike_v1,1.76351E+12,1.04866,3.94325,0.89783,-124.95794,-70.70526,49.43104,22.60114,88.43176,0
bike_v1,1.76351E+12,3.4692,16.19438,2.85868,-124.14211,-74.48634,50.51091,22.60114,88.43176,0
bike_v1,1.76351E+12,2.81079,1.93212,23.68105,-145.61613,-4.63202,6.76898,22.60114,88.43176,0
bike_v1,1.76351E+12,1.7358,8.06128,-2.44448,-116.94475,-69.5993,35.37811,22.60114,88.43176,0
bike_v1,1.76351E+12,5.09247,7.49625,-1.18752,-144.36763,-55.10184,76.87364,22.60114,88.43176,0
bike_v1,1.76351E+12,1.8579,0.92416,22.75928,-153.59097,-2.31757,4.66686,22.60114,88.43176,0
bike_v1,1.76351E+12,-1.18992,13.45781,-2.28407,-70.83273,-79.16624,-27.51791,22.60114,88.43176,0
bike_v1,1.76351E+12,6.68461,7.50822,16.17283,-134.04047,-23.2215,22.45646,22.60114,88.43176,0
bike_v1,1.76351E+12,1.78129,3.77326,2.85868,-123.49532,-48.24602,31.92768,22.60114,88.43176,0
bike_v1,1.76351E+12,2.21942,0.65122,4.1276,-164.36475,-7.91106,28.26706,22.60114,88.43176,0
bike_v1,1.76351E+12,4.47237,11.6837,8.56406,-118.67815,-50.41185,27.57471,22.60114,88.43176,0
bike_v1,1.76351E+12,1.39582,-1.46525,7.03656,134.1841,11.54411,11.21993,22.60114,88.43176,0
bike_v1,1.76351E+12,8.19535,3.34231,19.26375,-158.51546,-9.071,23.0463,22.60114,88.43176,0
bike_v1,1.76351E+12,-1.83875,9.39964,-14.46098,-77.54719,-32.81427,-7.2464,22.60114,88.43176,0
bike_v1,1.76351E+12,1.79565,-2.44927,3.61046,130.21509,31.27477,26.44334,22.60114,88.43176,0
bike_v1,1.76351E+12,4.03662,10.60153,-10.92235,-115.60949,-42.31598,20.28304,22.60114,88.43176,0
bike_v1,1.76351E+12,11.20726,10.63265,15.32768,-141.04324,-29.2475,36.17344,22.60114,88.43176,0
bike_v1,1.76351E+12,-0.57461,-0.67756,0.16281,-141.04324,-29.2475,36.17344,22.60114,88.43176,0
bike_v1,1.76351E+12,2.36787,7.13233,10.74518,-110.66326,-32.95201,12.42739,22.60114,88.43176,0
bike_v1,1.76351E+12,3.32076,17.15924,-4.14915,-117.98028,-72.79168,38.67189,22.60114,88.43176,0
bike_v1,1.76351E+12,0.96247,-2.10211,16.07467,114.73657,7.43721,3.42649,22.60114,88.43176,0
bike_v1,1.76351E+12,0.9505,8.08282,2.50912,-106.15226,-71.63622,20.74753,22.60114,88.43176,0
bike_v1,1.76351E+12,1.08697,11.82975,-0.00958,-136.55998,-84.74991,89.49521,22.60114,88.43176,0
bike_v1,1.76351E+12,0.66798,-2.26491,14.77222,106.55824,8.70808,2.58908,22.60114,88.43176,0
bike_v1,1.76351E+12,2.4349,10.92953,14.38197,-104.61769,-36.84364,9.6092,22.60114,88.43176,0
bike_v1,1.76351E+12,-0.84755,4.47237,-6.11719,-77.61148,-35.91196,-7.88821,22.60114,88.43176,0
bike_v1,1.76351E+12,0.05986,-0.71826,8.19535,94.7758,5.00861,0.41845,22.60114,88.43176,0
bike_v1,1.76351E+12,-0.05507,11.07318,9.67497,-89.61756,-48.85486,-0.3261,22.60114,88.43176,0
bike_v1,1.76351E+12,-1.27132,8.6287,-2.25534,-68.13776,-73.29853,-29.40973,22.60114,88.43176,0
bike_v1,1.76351E+12,-0.67277,8.22408,19.55345,-85.06009,-22.79927,-1.97058,22.60114,88.43176,0
bike_v1,1.76351E+12,1.8172,7.88889,-7.54892,-106.58164,-45.45509,13.5349,22.60114,88.43176,0
bike_v1,1.76351E+12,-0.88107,3.81157,33.26982,-76.92811,-6.53334,-1.51698,22.60114,88.43176,0
bike_v1,1.76351E+12,-0.27533,6.53378,-6.93361,-86.99212,-43.27692,-2.27402,22.60114,88.43176,0
bike_v1,1.76351E+12,-2.04465,0.15083,9.90002,-4.18979,-0.85484,-11.66921,22.60114,88.43176,0
bike_v1,1.76351E+12,-1.77171,9.54329,8.4252,-76.08832,-47.94485,-11.87553,22.60114,88.43176,0
bike_v1,1.76351E+12,5.67186,10.70208,-6.07648,-129.5177,-52.16367,43.02748,22.60114,88.43176,0
bike_v1,1.76351E+12,-3.36864,7.20655,14.99967,-63.25342,-25.11581,-12.65753,22.60114,88.43176,0
bike_v1,1.76351E+12,0.04549,9.0429,15.05235,-90.32007,-30.9958,0.17315,22.60114,88.43176,0
bike_v1,1.76351E+12,6.37336,4.03902,-4.89375,-153.04701,-26.68637,52.48137,22.60114,88.43176,0
bike_v1,1.76351E+12,0.44293,18.26297,-0.49799,-115.35101,-87.90997,41.65063,22.60114,88.43176,0
bike_v1,1.76351E+12,-3.33512,4.98952,32.42946,-55.98879,-8.70161,-5.87179,22.60114,88.43176,0
bike_v1,1.76351E+12,2.00634,-1.32399,4.63039,147.89064,14.70108,23.42703,22.60114,88.43176,0
bike_v1,1.76351E+12,2.04704,17.81286,2.03268,-119.22362,-80.80077,45.20174,22.60114,88.43176,0
bike_v1,1.76351E+12,-1.93691,3.90494,0.83079,-42.70775,-61.64352,-66.78432,22.60114,88.43176,0
bike_v1,1.76351E+12,2.74615,-4.64236,7.60877,123.6163,29.85139,19.84547,22.60114,88.43176,0
bike_v1,1.76351E+12,0.76136,4.96079,0.54827,-124.37549,-79.29028,54.24137,22.60114,88.43176,0
bike_v1,1.76351E+12,-0.08619,7.13233,5.32231,-89.00211,-53.26523,-0.92779,22.60114,88.43176,0
bike_v1,1.76351E+12,-1.30245,3.44286,6.49307,-67.56343,-27.46902,-11.34243,22.60114,88.43176,0
bike_v1,1.76351E+12,3.19626,9.22725,-1.41018,-133.70172,-69.26286,66.193,22.60114,88.43176,0
bike_v1,1.76351E+12,-2.63602,8.54251,11.79863,-70.33688,-35.24524,-12.59404,22.60114,88.43176,0
bike_v1,1.76351E+12,4.44603,6.36858,16.57027,-126.40891,-20.36531,15.01949,22.60114,88.43176,0
bike_v1,1.76351E+12,-4.24492,13.44584,-16.60379,-69.38165,-38.1167,-14.34106,22.60114,88.43176,0
bike_v1,1.76351E+12,-1.59214,3.45244,30.71282,-65.14156,-6.40518,-2.96754,22.60114,88.43176,0
bike_v1,1.76351E+12,5.55694,14.65491,0.79009,-139.87125,-69.04316,81.90791,22.60114,88.43176,0
bike_v1,1.76351E+12,4.89614,5.41568,-0.73981,-149.70438,-47.56241,81.40759,22.60114,88.43176,0
bike_v1,1.76351E+12,2.9736,9.56484,8.90643,-112.07312,-45.52933,18.46267,22.60114,88.43176,0
bike_v1,1.76351E+12,2.42293,-3.04064,13.16093,129.1757,12.80121,10.43137,22.60114,88.43176,0
bike_v1,1.76351E+12,5.83467,2.18112,4.93684,-162.25256,-15.92735,49.7647,22.60114,88.43176,0
bike_v1,1.76351E+12,-1.44849,9.04529,12.57914,-79.52849,-35.54015,-6.5687,22.60114,88.43176,0
bike_v1,1.76351E+12,4.13239,4.26168,4.51546,-140.62634,-34.84735,42.46364,22.60114,88.43176,0
bike_v1,1.76351E+12,3.06697,8.21929,8.73165,-114.94457,-41.60919,19.3537,22.60114,88.43176,0
bike_v1,1.76351E+12,3.28006,4.96797,4.2138,-131.43501,-42.93338,37.89751,22.60114,88.43176,0
bike_v1,1.76351E+12,0.92416,12.16733,6.82587,-97.26472,-60.48502,7.71045,22.60114,88.43176,0
bike_v1,1.76351E+12,-0.26097,6.2752,2.3942,-84.8487,-69.00353,-6.22068,22.60114,88.43176,0
bike_v1,1.76351E+12,4.71658,5.80833,-0.00479,-150.48288,-50.92213,89.94183,22.60114,88.43176,0
bike_v1,1.76351E+12,-1.20428,3.4261,19.01954,-70.43002,-10.19154,-3.62303,22.60114,88.43176,0
bike_v1,1.76351E+12,4.33829,1.25696,-1.40061,-167.93327,-15.4147,72.10745,22.60114,88.43176,0
bike_v1,1.76351E+12,-2.85149,15.92623,-15.55034,-77.05618,-45.21053,-10.39099,22.60114,88.43176,0
bike_v1,1.76351E+12,2.03747,1.11091,19.2422,-151.47003,-3.28586,6.04426,22.60114,88.43176,0
bike_v1,1.76351E+12,0.87628,7.04374,-0.19154,-133.18878,-82.74288,77.67025,22.60114,88.43176,0
bike_v1,1.76351E+12,3.93846,1.56341,-0.83797,-164.77904,-21.21967,77.98853,22.60114,88.43176,0
bike_v1,1.76351E+12,-1.06781,8.17859,-0.26576,-47.28283,-82.33714,-76.02423,22.60114,88.43176,0
bike_v1,1.76351E+12,1.84593,-4.16352,3.19387,121.78345,48.45862,30.02624,22.60114,88.43176,0
bike_v1,1.76351E+12,2.91614,15.65568,29.28109,-101.47596,-28.01462,5.6874,22.60114,88.43176,0
bike_v1,1.76351E+12,0.76375,-1.46046,-11.5209,117.74934,7.20898,3.79272,22.60114,88.43176,0
bike_v1,1.76351E+12,0.31603,5.4085,27.34418,-93.38729,-11.18759,0.66218,22.60114,88.43176,0
bike_v1,1.76351E+12,0.26815,3.83072,-1.94409,-97.11973,-62.87372,7.85332,22.60114,88.43176,0
bike_v1,1.76351E+12,2.94008,2.84431,32.8245,-136.05743,-4.93279,5.11831,22.60114,88.43176,0
bike_v1,1.76351E+12,-1.31442,11.38922,-19.43134,-82.72621,-30.31866,-3.86981,22.60114,88.43176,0
bike_v1,1.76351E+12,2.32238,14.30775,6.03339,-107.77139,-65.68429,21.05275,22.60114,88.43176,0
bike_v1,1.76351E+12,1.80523,2.14042,-5.94959,-131.62183,-18.99655,16.87888,22.60114,88.43176,0
bike_v1,1.76351E+12,3.24893,2.66953,10.01495,-141.63576,-14.22736,17.97349,22.60114,88.43176,0
bike_v1,1.76351E+12,1.04148,9.76834,9.48104,-97.81339,-45.68335,6.26872,22.60114,88.43176,0
bike_v1,1.76351E+12,-0.0407,-1.49638,1.2402,87.86127,50.33292,-1.87969,22.60114,88.43176,0
bike_v1,1.76351E+12,4.07254,6.34224,21.95722,-123.53425,-15.85463,10.50758,22.60114,88.43176,0
bike_v1,1.76351E+12,-0.91698,3.40216,13.05079,-74.58517,-14.57663,-4.01913,22.60114,88.43176,0
bike_v1,1.76351E+12,0.32082,5.00149,22.10327,-93.73199,-12.74876,0.83157,22.60114,88.43176,0
bike_v1,1.76351E+12,4.88896,10.88165,5.72214,-126.20987,-55.33038,40.51035,22.60114,88.43176,0
bike_v1,1.76351E+12,0.31364,-1.52989,2.66235,102.74158,29.71313,6.71881,22.60114,88.43176,0
bike_v1,1.76351E+12,2.54743,10.09635,12.28704,-106.78991,-38.82002,11.71299,22.60114,88.43176,0
bike_v1,1.76351E+12,3.77087,3.87382,7.66384,-137.04045,-24.39616,26.19874,22.60114,88.43176,0
bike_v1,1.76351E+12,-2.35829,6.91206,13.56076,-69.6965,-26.66458,-9.86538,22.60114,88.43176,0
bike_v1,1.76351E+12,-1.28569,9.4164,-6.45716,-78.43693,-55.03888,-11.26089,22.60114,88.43176,0
bike_v1,1.76351E+12,1.29287,5.15232,38.45806,-104.16933,-7.62636,1.92542,22.60114,88.43176,0
bike_v1,1.76351E+12,3.22738,2.13323,-6.12916,-148.35086,-17.11682,27.76961,22.60114,88.43176,0
bike_v1,1.76351E+12,1.45328,17.60217,4.11563,-104.34088,-76.07366,19.44875,22.60114,88.43176,0
bike_v1,1.76351E+12,3.12922,1.87466,29.83894,-149.1537,-3.57538,5.98675,22.60114,88.43176,0
bike_v1,1.76351E+12,0.90501,0.52912,4.30238,-149.98505,-6.86249,11.87902,22.60114,88.43176,0
bike_v1,1.76351E+12,5.84185,10.95587,4.67827,-132.67113,-55.66208,51.31157,22.60114,88.43176,0
bike_v1,1.76351E+12,3.14598,9.31105,-1.88903,-130.75098,-68.49024,59.01701,22.60114,88.43176,0
bike_v1,1.76351E+12,0.54827,-4.26886,-2.59771,101.58803,58.12125,11.91792,22.60114,88.43176,0
bike_v1,1.76351E+12,-4.30238,13.75469,20.00834,-70.30611,-33.90448,-12.13549,22.60114,88.43176,0
bike_v1,1.76351E+12,4.73813,3.03585,29.31939,-147.55255,-5.83638,9.17985,22.60114,88.43176,0
bike_v1,1.76351E+12,-1.27132,-1.86987,-23.92765,55.72179,4.46214,-3.04138,22.60114,88.43176,0
bike_v1,1.76351E+12,-1.43652,6.52659,14.02284,-76.75215,-24.84427,-5.84906,22.60114,88.43176,0
bike_v1,1.76351E+12,1.53947,12.20564,9.81862,-99.94042,-50.84541,8.91092,22.60114,88.43176,0
bike_v1,1.76351E+12,0.01437,2.67672,10.68532,-90.31381,-14.06342,0.07703,22.60114,88.43176,0
bike_v1,1.76351E+12,6.29436,8.65504,15.6916,-128.87828,-27.10889,21.85716,22.60114,88.43176,0
bike_v1,1.76351E+12,2.25773,5.88255,-10.27112,-112.98913,-29.22147,12.39723,22.60114,88.43176,0
bike_v1,1.76351E+12,0.13168,-1.26174,4.77404,96.09395,14.79898,1.57997,22.60114,88.43176,0
bike_v1,1.76351E+12,-14.21677,39.18829,18.79688,-57.82678,-58.97739,-37.10156,22.60114,88.43176,0
bike_v1,1.76351E+12,7.02219,0.58179,17.07066,-175.38414,-1.8053,22.36033,22.60114,88.43176,0
bike_v1,1.76351E+12,-0.44532,6.936,22.43846,-86.21236,-17.17384,-1.13696,22.60114,88.43176,0
bike_v1,1.76351E+12,5.06374,18.56464,-9.27035,-115.38718,-60.36035,28.64465,22.60114,88.43176,0
bike_v1,1.76351E+12,3.06458,9.35175,15.42345,-110.08148,-30.74026,11.23808,22.60114,88.43176,0
bike_v1,1.76351E+12,1.78847,-0.04549,14.76265,178.54659,0.17526,6.90762,22.60114,88.43176,0
bike_v1,1.76351E+12,4.9129,5.03501,-5.2864,-140.87071,-34.90256,42.90277,22.60114,88.43176,0
bike_v1,1.76351E+12,0.86191,4.18506,4.48913,-104.35276,-42.47548,10.86853,22.60114,88.43176,0
bike_v1,1.76351E+12,7.35738,-0.93613,18.87349,172.91792,2.64594,21.29714,22.60114,88.43176,0
bike_v1,1.76351E+12,2.14999,11.73877,12.86165,-102.73415,-41.99368,9.48999,22.60114,88.43176,0
bike_v1,1.76351E+12,1.13485,1.05824,2.43251,-139.29475,-21.5166,25.01072,22.60114,88.43176,0
bike_v1,1.76351E+12,5.69341,6.52899,14.70279,-133.25993,-22.49451,21.16807,22.60114,88.43176,0
bike_v1,1.76351E+12,3.58173,5.9472,11.45625,-123.37305,-26.3571,17.36152,22.60114,88.43176,0
bike_v1,1.76351E+12,2.43969,5.11162,-13.72596,-116.58943,-20.13589,10.07866,22.60114,88.43176,0
bike_v1,1.76351E+12,5.13556,15.04037,9.36133,-117.75621,-54.62826,28.74888,22.60114,88.43176,0
bike_v1,1.76351E+12,5.66708,0.93134,0.30885,-173.87764,-9.31915,86.88051,22.60114,88.43176,0
bike_v1,1.76351E+12,1.94649,3.94325,-0.47405,-140.42862,-63.06701,76.31251,22.60114,88.43176,0
bike_v1,1.76351E+12,6.54096,9.23683,19.25657,-127.52644,-24.42685,18.7613,22.60114,88.43176,0
bike_v1,1.76351E+12,-1.53229,-0.09337,-0.09577,2.30612,3.48038,-86.42365,22.60114,88.43176,0
bike_v1,1.76351E+12,7.38132,5.22175,8.35816,-148.80949,-25.09279,41.44862,22.60114,88.43176,0
bike_v1,1.76351E+12,-0.13647,8.25281,-10.99896,-88.89573,-36.87976,-0.71088,22.60114,88.43176,0
bike_v1,1.76351E+12,2.64799,-1.14203,31.5484,156.70355,2.06592,4.79783,22.60114,88.43176,0
bike_v1,1.76351E+12,2.56658,0.39983,-13.84806,-171.19647,-1.62614,10.49998,22.60114,88.43176,0
bike_v1,1.76351E+12,1.86029,2.01113,7.2664,-133.73355,-15.00932,14.36004,22.60114,88.43176,0
bike_v1,1.76351E+12,1.17316,9.76355,-0.55306,-128.15317,-82.43317,64.75948,22.60114,88.43176,0
bike_v1,1.76351E+12,1.45328,2.59053,26.7552,-119.38031,-5.52223,3.10912,22.60114,88.43176,0
bike_v1,1.76351E+12,2.54982,5.50427,-2.67911,-127.84275,-56.1012,43.58363,22.60114,88.43176,0
bike_v1,1.76351E+12,1.27132,6.50026,16.15368,-101.6328,-21.85872,4.5,22.60114,88.43176,0
bike_v1,1.76351E+12,1.01275,7.12993,14.36042,-98.70477,-26.34778,4.03402,22.60114,88.43176,0
bike_v1,1.76351E+12,-4.46758,4.00789,9.56723,-39.7058,-20.78543,-25.03102,22.60114,88.43176,0
bike_v1,1.76351E+12,0.39983,6.75644,6.91685,-94.27284,-44.28009,3.30833,22.60114,88.43176,0
bike_v1,1.76351E+12,1.22104,8.67898,-4.13239,-104.51211,-63.59612,16.46141,22.60114,88.43176,0
bike_v1,1.76351E+12,-3.11246,4.68066,8.9591,-53.89516,-26.267,-19.15763,22.60114,88.43176,0
bike_v1,1.76351E+12,-0.52433,12.55041,19.22783,-87.30006,-33.12357,-1.56203,22.60114,88.43176,0
bike_v1,1.76351E+12,3.50272,0.76136,-10.37647,-167.96478,-3.97676,18.6528,22.60114,88.43176,0
bike_v1,1.76351E+12,-2.67672,11.23838,25.38811,-75.7857,-23.76021,-6.01857,22.60114,88.43176,0
bike_v1,1.76351E+12,-4.13239,9.20331,-8.81545,-59.93571,-43.38904,-25.11563,22.60114,88.43176,0
bike_v1,1.76351E+12,0.77572,7.73327,28.75676,-95.86335,-15.04666,1.54519,22.60114,88.43176,0
bike_v1,1.76351E+12,-0.58658,1.04148,-24.28918,-60.5935,-2.45453,-1.38342,22.60114,88.43176,0
bike_v1,1.76351E+12,0.06464,0.82121,22.56056,-94.50286,-2.08466,0.16417,22.60114,88.43176,0
bike_v1,1.76351E+12,-2.69348,6.8546,10.57279,-66.02528,-32.1394,-14.29239,22.60114,88.43176,0
bike_v1,1.76351E+12,-3.69186,11.05882,-9.6199,-65.93984,-47.02362,-20.99545,22.60114,88.43176,0
bike_v1,1.76351E+12,-5.20021,15.42824,14.75786,-66.47852,-44.59619,-19.41086,22.60114,88.43176,0
bike_v1,1.76351E+12,0.03831,6.10282,30.50692,-90.36439,-11.31252,0.07195,22.60114,88.43176,0
bike_v1,1.76351E+12,4.62799,-0.59855,-6.38534,173.11273,4.34039,35.93402,22.60114,88.43176,0
bike_v1,1.76351E+12,-1.99437,10.49618,26.63789,-78.71207,-21.45146,-4.28173,22.60114,88.43176,0
bike_v1,1.76351E+12,-2.71263,2.53067,-7.46033,-41.50621,-17.68211,-19.98163,22.60114,88.43176,0
bike_v1,1.76351E+12,1.29287,5.84185,15.18642,-103.06335,-20.97131,4.86604,22.60114,88.43176,0
bike_v1,1.76351E+12,-7.78834,12.41154,-0.52672,-33.87933,-57.83252,-86.13098,22.60114,88.43176,0
bike_v1,1.76351E+12,2.07338,9.11233,3.76368,-114.01469,-64.75335,28.84995,22.60114,88.43176,0
bike_v1,1.76351E+12,-1.403,6.10043,16.42183,-76.48154,-20.31125,-4.88322,22.60114,88.43176,0
bike_v1,1.76351E+12,-2.5594,8.837,-23.21418,-73.11366,-20.72563,-6.29153,22.60114,88.43176,0
bike_v1,1.76351E+12,-5.1188,4.53701,20.92772,-40.86715,-11.89197,-13.74438,22.60114,88.43176,0
bike_v1,1.76351E+12,2.12605,7.33344,-1.28808,-129.51706,-71.27493,58.79018,22.60114,88.43176,0
bike_v1,1.76351E+12,0.60573,5.8634,24.59324,-96.00801,-13.40591,1.41091,22.60114,88.43176,0
bike_v1,1.76351E+12,2.31759,2.91374,-4.07493,-132.91919,-31.86292,29.62874,22.60114,88.43176,0
bike_v1,1.76351E+12,4.24013,7.82904,9.49301,-123.05775,-36.9803,24.06832,22.60114,88.43176,0
bike_v1,1.76351E+12,4.76446,0.35674,8.837,-175.89151,-2.03503,28.33129,22.60114,88.43176,0
bike_v1,1.76351E+12,2.51152,8.60476,0.22266,-139.06282,-73.66835,84.93364,22.60114,88.43176,0
bike_v1,1.76351E+12,5.14035,4.05338,14.21438,-142.94543,-15.01152,19.88153,22.60114,88.43176,0
bike_v1,1.76351E+12,-0.79966,2.15239,-14.97334,-69.48229,-8.16864,-3.05701,22.60114,88.43176,0
bike_v1,1.76351E+12,4.03662,4.61602,23.22854,-131.66675,-11.07768,9.85833,22.60114,88.43176,0
bike_v1,1.76351E+12,10.25197,2.28646,13.12022,-168.37405,-7.81895,38.0036,22.60114,88.43176,0
bike_v1,1.76351E+12,3.0574,7.62314,0.76854,-138.33482,-67.53271,75.88988,22.60114,88.43176,0
bike_v1,1.76351E+12,5.0374,5.3678,0.44293,-151.20352,-46.7086,84.97503,22.60114,88.43176,0
bike_v1,1.76351E+12,2.36068,3.45244,23.87977,-124.58937,-8.18723,5.64575,22.60114,88.43176,0
bike_v1,1.76351E+12,0.69911,10.00776,-15.86877,-94.47766,-32.21284,2.52257,22.60114,88.43176,0
bike_v1,1.76351E+12,-1.01035,5.66229,14.05636,-79.36281,-21.88982,-4.11128,22.60114,88.43176,0
bike_v1,1.76351E+12,4.50828,14.05157,5.80594,-121.23198,-62.38474,37.82915,22.60114,88.43176,0
bike_v1,1.76351E+12,2.34392,-1.67115,16.50563,144.6922,5.7243,8.08239,22.60114,88.43176,0
bike_v1,1.76351E+12,-0.29928,9.65821,-4.96797,-86.8548,-62.73748,-3.44739,22.60114,88.43176,0
bike_v1,1.76351E+12,7.59201,-4.04381,4.46997,157.49651,24.65475,59.51156,22.60114,88.43176,0
bike_v1,1.76351E+12,7.65187,6.97431,27.58599,-138.55013,-13.6918,15.50308,22.60114,88.43176,0
bike_v1,1.76351E+12,5.54737,12.20325,1.27611,-139.84995,-64.99313,77.04512,22.60114,88.43176,0
bike_v1,1.76351E+12,5.25527,0.64883,20.99954,-173.03343,-1.71681,14.05008,22.60114,88.43176,0
bike_v1,1.76351E+12,-2.72939,9.09318,0.64643,-43.53722,-72.85701,-76.67546,22.60114,88.43176,0
bike_v1,1.76351E+12,5.84664,0.51236,2.58574,-176.03702,-4.58217,66.14209,22.60114,88.43176,0
bike_v1,1.76351E+12,1.46286,7.90326,5.03022,-106.02341,-56.46193,16.21517,22.60114,88.43176,0
bike_v1,1.76351E+12,4.42448,4.26647,6.13873,-140.57753,-29.41528,35.78213,22.60114,88.43176,0
bike_v1,1.76351E+12,1.06542,1.87945,1.30484,-129.18442,-48.13004,39.23211,22.60114,88.43176,0
bike_v1,1.76351E+12,6.42125,1.66636,14.99967,-165.87662,-5.83131,23.17541,22.60114,88.43176,0
bike_v1,1.76351E+12,-0.31603,-0.10774,1.69031,18.7024,3.5851,-10.59025,22.60114,88.43176,0
bike_v1,1.76351E+12,3.68946,9.47386,0.84755,-138.48322,-68.21935,77.06242,22.60114,88.43176,0
bike_v1,1.76351E+12,-1.39582,2.19548,0.56503,-39.26381,-55.5544,-67.96176,22.60114,88.43176,0
bike_v1,1.76351E+12,5.12599,1.30245,18.84955,-165.92383,-3.81458,15.21324,22.60114,88.43176,0
bike_v1,1.76351E+12,0.69192,9.03332,5.9472,-96.70329,-56.46347,6.63622,22.60114,88.43176,0
bike_v1,1.76351E+12,1.36469,0.97923,8.98304,-144.54608,-6.15114,8.63826,22.60114,88.43176,0
bike_v1,1.76351E+12,1.93451,12.04762,6.0286,-105.9433,-62.27676,17.7909,22.60114,88.43176,0
bike_v1,1.76351E+12,1.50116,4.08451,16.08904,-110.59455,-14.18558,5.33047,22.60114,88.43176,0
bike_v1,1.76351E+12,4.92248,5.00388,-0.95529,-150.37138,-44.94032,79.01735,22.60114,88.43176,0
bike_v1,1.76351E+12,-1.5706,6.73728,7.46991,-74.00857,-41.43242,-11.87385,22.60114,88.43176,0
bike_v1,1.76351E+12,3.70383,1.94649,6.72052,-153.74802,-14.23349,28.86013,22.60114,88.43176,0
bike_v1,1.76351E+12,0.49799,5.85861,9.18895,-95.45528,-32.48235,3.1021,22.60114,88.43176,0
bike_v1,1.76351E+12,0.27294,5.14993,6.84023,-93.53833,-36.95374,2.285,22.60114,88.43176,0
bike_v1,1.76351E+12,0.9481,9.30387,16.59182,-96.38162,-29.24171,3.27049,22.60114,88.43176,0
bike_v1,1.76351E+12,-0.01676,4.22816,-12.75152,-89.76476,-18.34453,-0.07532,22.60114,88.43176,0
bike_v1,1.76351E+12,2.17154,4.39336,21.00194,-116.66668,-11.75432,5.90324,22.60114,88.43176,0
bike_v1,1.76351E+12,-1.40061,4.62799,17.53034,-72.78555,-14.7437,-4.56801,22.60114,88.43176,0
bike_v1,1.76351E+12,0.84755,9.72285,6.43322,-97.59564,-56.28175,7.50523,22.60114,88.43176,0
bike_v1,1.76351E+12,-0.54348,8.14507,-7.78355,-85.06206,-46.23059,-3.9942,22.60114,88.43176,0
bike_v1,1.76351E+12,0.84276,2.05183,25.50064,-112.37667,-4.59772,1.89285,22.60114,88.43176,0
bike_v1,1.76351E+12,-0.48363,2.65038,15.37556,-79.55773,-9.77557,-1.80161,22.60114,88.43176,0
bike_v1,1.76351E+12,1.79805,5.62637,0.64883,-134.56351,-71.23508,70.15791,22.60114,88.43176,0
bike_v1,1.76351E+12,1.21865,6.67264,10.24958,-101.65175,-32.88116,6.78049,22.60114,88.43176,0
bike_v1,1.76351E+12,0.03831,0.00479,17.1377,-172.87604,-0.01601,0.12807,22.60114,88.43176,0
bike_v1,1.76351E+12,3.01669,6.6487,-0.46926,-141.16429,-65.33618,81.15819,22.60114,88.43176,0
bike_v1,1.76351E+12,-2.61926,4.65912,13.15614,-59.54971,-19.15332,-11.2598,22.60114,88.43176,0
bike_v1,1.76351E+12,2.65996,1.42934,1.64721,-157.13736,-24.55327,58.23164,22.60114,88.43176,0
bike_v1,1.76351E+12,0.249,2.47082,13.27345,-95.8203,-10.54294,1.07469,22.60114,88.43176,0
bike_v1,1.76351E+12,2.91614,-0.4525,-9.0022,171.32747,2.73778,17.94902,22.60114,88.43176,0
bike_v1,1.76351E+12,2.78446,5.68144,24.85181,-116.53992,-12.79982,6.39289,22.60114,88.43176,0
bike_v1,1.76351E+12,0.89304,-2.31759,5.84425,112.09088,21.40561,8.68795,22.60114,88.43176,0
bike_v1,1.76351E+12,3.39498,-0.36152,2.77009,174.69415,4.71666,50.78769,22.60114,88.43176,0
bike_v1,1.76351E+12,-1.78607,11.44907,22.22298,-80.40509,-27.18208,-4.59502,22.60114,88.43176,0
bike_v1,1.76351E+12,6.25365,-1.43652,-7.78834,168.07796,8.18417,38.76277,22.60114,88.43176,0
bike_v1,1.76351E+12,3.90734,10.3238,32.123,-111.40244,-17.69434,6.9352,22.60114,88.43176,0
bike_v1,1.76351E+12,0.21069,6.46434,-26.85815,-91.90224,-13.53241,0.44945,22.60114,88.43176,0
bike_v1,1.76351E+12,0.85952,7.56568,35.71909,-96.57698,-11.95573,1.37846,22.60114,88.43176,0
bike_v1,1.76351E+12,2.73897,3.08134,17.34599,-132.03842,-9.95213,8.97303,22.60114,88.43176,0
bike_v1,1.76351E+12,4.10366,-2.96642,1.58975,153.72179,33.98224,68.82373,22.60114,88.43176,0
bike_v1,1.76351E+12,2.17872,13.08671,11.21444,-102.67622,-48.88046,10.99437,22.60114,88.43176,0
bike_v1,1.76351E+12,-0.48363,-0.65122,-2.28886,52.51252,15.55574,-11.93094,22.60114,88.43176,0
bike_v1,1.76351E+12,1.18752,-1.75734,12.11466,124.27449,8.21489,5.59846,22.60114,88.43176,0
bike_v1,1.76351E+12,2.28646,5.21457,-1.51314,-132.22321,-62.26476,56.5042,22.60114,88.43176,0
bike_v1,1.76351E+12,-0.84276,4.15873,11.87524,-78.0955,-19.25548,-4.05935,22.60114,88.43176,0
bike_v1,1.76351E+12,3.80678,0.47166,4.707,-173.47731,-4.45503,38.96416,22.60114,88.43176,0
bike_v1,1.76351E+12,2.42293,9.22725,-4.96079,-113.76947,-59.10699,26.03168,22.60114,88.43176,0
bike_v1,1.76351E+12,-0.83558,3.9217,28.2037,-77.89564,-7.91275,-1.69698,22.60114,88.43176,0
bike_v1,1.76351E+12,2.55222,1.72383,-2.21703,-151.1389,-27.0172,49.0202,22.60114,88.43176,0
bike_v1,1.76351E+12,1.10373,9.47625,17.9206,-97.21887,-27.82468,3.52439,22.60114,88.43176,0
bike_v1,1.76351E+12,2.26252,5.60722,-1.58975,-130.73763,-63.74983,54.90638,22.60114,88.43176,0
bike_v1,1.76351E+12,0.23703,3.95283,30.62902,-93.45051,-7.35344,0.44338,22.60114,88.43176,0
bike_v1,1.76351E+12,5.88734,4.11084,14.82969,-146.28728,-14.44766,21.65294,22.60114,88.43176,0
bike_v1,1.76351E+12,1.49877,3.57933,0.61531,-135.87372,-65.64644,67.67973,22.60114,88.43176,0
bike_v1,1.76351E+12,-1.11091,8.12592,4.40054,-76.88564,-60.81516,-14.16819,22.60114,88.43176,0
bike_v1,1.76351E+12,0.87388,0.06943,13.53442,-175.46037,-0.29332,3.69432,22.60114,88.43176,0
bike_v1,1.76351E+12,1.23541,1.99437,18.71069,-121.89099,-6.07106,3.77758,22.60114,88.43176,0
bike_v1,1.76351E+12,3.42371,5.18584,0.66798,-144.61966,-56.0732,78.96,22.60114,88.43176,0
bike_v1,1.76351E+12,2.16915,11.09234,1.82438,-123.42188,-75.66627,49.93417,22.60114,88.43176,0
bike_v1,1.76351E+12,2.46124,-4.11563,-2.59292,131.5901,49.02078,43.50755,22.60114,88.43176,0
bike_v1,1.76351E+12,-0.27054,4.16352,25.15348,-86.24847,-9.3981,-0.61624,22.60114,88.43176,0
bike_v1,1.76351E+12,2.48279,3.54581,-1.83396,-137.56268,-48.9599,53.54786,22.60114,88.43176,0
bike_v1,1.76351E+12,0.64643,5.93523,10.89362,-96.78555,-28.54082,3.39599,22.60114,88.43176,0
bike_v1,1.76351E+12,2.33195,6.73489,12.29183,-110.78988,-28.2942,10.74224,22.60114,88.43176,0
bike_v1,1.76351E+12,0.65841,2.07577,15.22233,-107.70506,-7.758,2.47665,22.60114,88.43176,0
bike_v1,1.76351E+12,2.2697,-2.24337,-1.61609,144.54842,38.83932,54.54816,22.60114,88.43176,0
bike_v1,1.76351E+12,-0.0431,14.5328,22.46719,-89.80859,-32.89659,-0.1099,22.60114,88.43176,0
bike_v1,1.76351E+12,-0.00479,3.31358,-20.5231,-89.9165,-9.1716,-0.01337,22.60114,88.43176,0
bike_v1,1.76351E+12,-0.41899,-1.26174,16.19199,71.59378,4.45422,-1.48226,22.60114,88.43176,0
bike_v1,1.76351E+12,-4.24492,14.54956,0.81642,-42.87534,-73.45316,-79.11327,22.60114,88.43176,0
bike_v1,1.76351E+12,1.67355,7.27837,25.43121,-103.29102,-15.93832,3.76502,22.60114,88.43176,0
bike_v1,1.76351E+12,0.3735,1.06781,8.97826,-109.36744,-6.77672,2.38213,22.60114,88.43176,0
bike_v1,1.76351E+12,0.8691,12.04044,8.31985,-96.16488,-55.21028,5.96351,22.60114,88.43176,0
bike_v1,1.76351E+12,-0.56503,1.9824,12.13381,-73.95261,-9.26903,-2.66615,22.60114,88.43176,0
bike_v1,1.76351E+12,3.74214,2.79164,7.67102,-145.1433,-18.11172,26.0044,22.60114,88.43176,0
bike_v1,1.76351E+12,1.68791,8.24563,0.62489,-131.89209,-77.68655,69.68481,22.60114,88.43176,0
bike_v1,1.76351E+12,0.16759,2.83473,7.98227,-93.52109,-19.54744,1.20279,22.60114,88.43176,0
bike_v1,1.76351E+12,0.98641,-1.98719,-4.48434,117.92797,23.4026,12.40567,22.60114,88.43176,0
bike_v1,1.76351E+12,-0.26336,8.20253,11.9351,-87.90115,-34.49274,-1.26409,22.60114,88.43176,0
bike_v1,1.76351E+12,3.52666,7.73806,19.64203,-115.65352,-21.19398,10.17881,22.60114,88.43176,0
bike_v1,1.76351E+12,0.75896,-0.76614,-0.46448,145.16896,40.72916,58.5339,22.60114,88.43176,0
bike_v1,1.76351E+12,0.79248,9.0022,5.09486,-98.35532,-60.19752,8.84123,22.60114,88.43176,0
bike_v1,1.76351E+12,4.34787,6.34942,-2.1045,-140.586,-52.73741,64.17159,22.60114,88.43176,0
bike_v1,1.76351E+12,-0.17717,4.61123,14.51604,-87.7276,-17.62198,-0.69927,22.60114,88.43176,0
bike_v1,1.76351E+12,2.33914,7.82665,12.20085,-108.62028,-32.21132,10.853,22.60114,88.43176,0
bike_v1,1.76351E+12,0.41899,6.59363,9.51695,-94.1563,-34.68942,2.52083,22.60114,88.43176,0
bike_v1,1.76351E+12,1.2402,5.9879,8.7556,-103.30067,-34.10329,8.06209,22.60114,88.43176,0
bike_v1,1.76351E+12,1.96803,7.65426,10.15141,-106.72624,-36.50986,10.97171,22.60114,88.43176,0
bike_v1,1.76351E+12,0.77812,8.6311,6.36858,-97.43561,-53.37469,6.9659,22.60114,88.43176,0
bike_v1,1.76351E+12,2.15718,3.81396,22.79759,-119.75396,-9.45598,5.4054,22.60114,88.43176,0
bike_v1,1.76351E+12,3.86185,9.42358,10.43633,-116.76599,-40.25928,20.30644,22.60114,88.43176,0
bike_v1,1.76351E+12,0.13647,2.92811,-7.44836,-92.80054,-21.45757,1.04965,22.60114,88.43176,0
bike_v1,1.76351E+12,0.9912,2.2721,24.88533,-113.63286,-5.21268,2.28092,22.60114,88.43176,0
bike_v1,1.76351E+12,3.25133,5.4492,5.9879,-126.40506,-38.65094,28.5012,22.60114,88.43176,0
bike_v1,1.76351E+12,-0.40941,5.2433,9.6199,-85.12473,-28.57069,-2.43695,22.60114,88.43176,0
bike_v1,1.76351E+12,0.22505,6.8977,13.17769,-92.02841,-27.62581,0.97843,22.60114,88.43176,0
bike_v1,1.76351E+12,2.806,4.8722,2.92332,-131.09395,-50.2505,43.82695,22.60114,88.43176,0
bike_v1,1.76351E+12,1.49877,0.7829,6.05733,-152.77107,-7.15128,13.89762,22.60114,88.43176,0
bike_v1,1.76351E+12,0.06943,1.81241,11.62624,-92.21153,-8.86035,0.34217,22.60114,88.43176,0
bike_v1,1.76351E+12,0.76136,8.83939,-0.577,-122.22507,-83.83178,52.84292,22.60114,88.43176,0
bike_v1,1.76351E+12,1.21147,5.1619,27.57642,-103.35918,-10.59225,2.51546,22.60114,88.43176,0
bike_v1,1.76351E+12,0.55067,10.1179,12.0165,-93.7466,-40.06778,2.62379,22.60114,88.43176,0
bike_v1,1.76351E+12,0.8691,5.95917,8.06128,-99.61709,-36.31494,6.15335,22.60114,88.43176,0
bike_v1,1.76351E+12,0.95289,4.02465,15.48809,-103.61124,-14.5401,3.52064,22.60114,88.43176,0
bike_v1,1.76351E+12,1.69509,5.83946,1.4437,-125.64828,-69.12825,49.57913,22.60114,88.43176,0
bike_v1,1.76351E+12,-0.69432,1.89621,21.06658,-69.83605,-5.14056,-1.88769,22.60114,88.43176,0
bike_v1,1.76351E+12,3.30639,7.75721,4.44843,-123.92249,-54.4537,36.6224,22.60114,88.43176,0
bike_v1,1.76351E+12,1.02232,9.16979,2.30322,-107.78084,-74.63408,23.93485,22.60114,88.43176,0
bike_v1,1.76351E+12,2.3535,5.3271,20.45127,-114.34571,-14.50818,6.56463,22.60114,88.43176,0
bike_v1,1.76351E+12,4.36942,6.2752,3.95283,-135.64282,-46.80351,47.86569,22.60114,88.43176,0
bike_v1,1.76351E+12,1.19231,0.79487,10.64941,-146.41306,-4.24225,6.38826,22.60114,88.43176,0
bike_v1,1.76351E+12,2.45166,2.26013,16.8073,-137.59485,-7.57953,8.29914,22.60114,88.43176,0
bike_v1,1.76351E+12,4.22337,11.11149,5.62637,-122.61261,-57.66048,36.8933,22.60114,88.43176,0
bike_v1,1.76351E+12,0.29688,-0.00958,2.92332,178.15558,0.18674,5.79885,22.60114,88.43176,0
bike_v1,1.76351E+12,-0.77093,7.15627,30.21482,-83.73832,-13.32057,-1.46159,22.60114,88.43176,0
bike_v1,1.76351E+12,4.31914,2.39181,-0.47645,-160.99527,-28.82973,83.70513,22.60114,88.43176,0
bike_v1,1.76351E+12,3.48835,9.18176,24.10243,-111.73511,-20.65742,8.23525,22.60114,88.43176,0
bike_v1,1.76351E+12,1.73101,1.46046,-15.38514,-139.98796,-5.38885,6.41945,22.60114,88.43176,0
bike_v1,1.76351E+12,-0.05986,-1.96803,9.22725,88.23186,12.03967,-0.37166,22.60114,88.43176,0
bike_v1,1.76351E+12,4.07254,8.17141,3.21541,-131.92215,-57.5843,51.70765,22.60114,88.43176,0
bike_v1,1.76351E+12,-2.28167,7.56089,8.60955,-69.79322,-40.3277,-14.84312,22.60114,88.43176,0
bike_v1,1.76351E+12,4.81713,3.49075,8.78672,-146.23956,-19.20624,28.73283,22.60114,88.43176,0
bike_v1,1.76351E+12,1.71904,-0.81642,11.98537,154.7041,3.85751,8.16215,22.60114,88.43176,0
bike_v1,1.76351E+12,2.18112,4.87699,-9.27514,-116.02183,-27.10568,13.23311,22.60114,88.43176,0
bike_v1,1.76351E+12,-1.31442,0.4118,15.79934,-17.3732,-1.48792,-4.75574,22.60114,88.43176,0
bike_v1,1.76351E+12,3.65834,5.69341,8.339,-126.49718,-32.01466,23.68717,22.60114,88.43176,0
bike_v1,1.76351E+12,0.3304,2.8922,-8.72686,-96.74828,-18.32361,2.16818,22.60114,88.43176,0
bike_v1,1.76351E+12,0.39983,6.28957,18.13129,-93.77876,-19.12685,1.26328,22.60114,88.43176,0
bike_v1,1.76351E+12,-3.33512,12.89756,-9.69173,-69.76926,-51.52631,-18.98938,22.60114,88.43176,0
bike_v1,1.76351E+12,0.07422,9.42597,28.50537,-90.46712,-18.29764,0.14918,22.60114,88.43176,0
bike_v1,1.76351E+12,0.22266,0.60334,-11.41795,-110.27502,-3.0242,1.11719,22.60114,88.43176,0
bike_v1,1.76351E+12,-0.13647,1.49638,20.79604,-84.78007,-4.11552,-0.37599,22.60114,88.43176,0
bike_v1,1.76351E+12,-0.23703,10.72602,20.17115,-88.62264,-28.0002,-0.67324,22.60114,88.43176,0
bike_v1,1.76351E+12,3.21062,1.50835,-4.25928,-156.89375,-15.79034,37.00877,22.60114,88.43176,0
bike_v1,1.76351E+12,-0.36392,12.22958,8.27436,-87.42019,-55.89258,-2.51833,22.60114,88.43176,0
bike_v1,1.76351E+12,2.9712,0.49799,19.14404,-170.52423,-1.47247,8.82207,22.60114,88.43176,0
bike_v1,1.76351E+12,2.46363,4.95839,-1.21625,-136.24763,-61.00867,63.72522,22.60114,88.43176,0
bike_v1,1.76351E+12,0.76136,9.00699,4.37421,-98.80291,-63.75912,9.87375,22.60114,88.43176,0
bike_v1,1.76351E+12,-0.41899,4.2952,9.26556,-84.05144,-24.84851,-2.58913,22.60114,88.43176,0
bike_v1,1.76351E+12,1.60651,11.59033,10.83855,-100.25334,-46.60904,8.4311,22.60114,88.43176,0
bike_v1,1.76351E+12,1.1157,-1.51553,9.95749,126.62336,8.601,6.39311,22.60114,88.43176,0
bike_v1,1.76351E+12,3.89537,11.37964,17.39866,-111.19264,-32.54811,12.61977,22.60114,88.43176,0
bike_v1,1.76351E+12,-0.77812,13.85764,-13.39795,-85.85977,-45.91805,-3.32385,22.60114,88.43176,0
bike_v1,1.76351E+12,0.11732,-0.85234,16.34043,97.84403,2.98584,0.41135,22.60114,88.43176,0
bike_v1,1.76351E+12,3.16035,14.30536,13.96777,-105.82845,-44.96901,12.74907,22.60114,88.43176,0
bike_v1,1.76351E+12,0.31603,6.8977,-3.02627,-95.14629,-66.19666,5.96181,22.60114,88.43176,0
bike_v1,1.76351E+12,5.89931,6.11958,32.37679,-134.43048,-10.53383,10.32647,22.60114,88.43176,0
bike_v1,1.76351E+12,-1.58975,12.33493,-3.73017,-72.17854,-71.80299,-23.0831,22.60114,88.43176,0
bike_v1,1.76351E+12,5.28161,7.78116,19.54866,-125.72647,-21.0199,15.11906,22.60114,88.43176,0
bike_v1,1.76351E+12,-1.64242,8.58561,-12.59829,-77.69415,-34.0497,-7.42767,22.60114,88.43176,0
bike_v1,1.76351E+12,4.53701,3.87861,5.20499,-144.4781,-29.32401,41.07753,22.60114,88.43176,0
bike_v1,1.76351E+12,-0.60094,-0.72065,10.0772,50.11124,4.08322,-3.41274,22.60114,88.43176,0
bike_v1,1.76351E+12,3.46441,12.7587,-0.12689,-139.60449,-74.79887,87.90234,22.60114,88.43176,0
bike_v1,1.76351E+12,2.38223,8.2576,0.38547,-137.63058,-73.70942,80.80869,22.60114,88.43176,0
bike_v1,1.76351E+12,0.84515,12.46661,20.18312,-94.32837,-31.68015,2.39782,22.60114,88.43176,0
bike_v1,1.76351E+12,1.42934,1.06063,-6.25365,-143.89981,-9.38824,12.8744,22.60114,88.43176,0
bike_v1,1.76351E+12,9.05727,4.4987,11.2743,-155.98146,-17.2796,38.77684,22.60114,88.43176,0
bike_v1,1.76351E+12,-1.87945,4.00311,6.92643,-62.49089,-29.15179,-15.18136,22.60114,88.43176,0
bike_v1,1.76351E+12,1.06063,10.68053,-6.63194,-98.92822,-57.83719,9.08624,22.60114,88.43176,0
bike_v1,1.76351E+12,-2.63123,6.70616,27.92836,-68.18317,-13.44487,-5.38215,22.60114,88.43176,0
bike_v1,1.76351E+12,5.20021,13.47936,5.03261,-126.63818,-61.76996,45.93831,22.60114,88.43176,0
bike_v1,1.76351E+12,-2.08535,5.52821,17.32923,-68.67209,-17.57434,-6.86181,22.60114,88.43176,0
bike_v1,1.76351E+12,3.33752,4.13239,0.97444,-145.89523,-49.92384,73.72401,22.60114,88.43176,0
bike_v1,1.76351E+12,-2.34153,2.8084,0.3304,-31.33288,-49.90198,-81.96835,22.60114,88.43176,0
bike_v1,1.76351E+12,2.68151,2.05183,19.74738,-142.75868,-5.8784,7.73292,22.60114,88.43176,0
bike_v1,1.76351E+12,0.90501,8.99502,5.99269,-98.71422,-56.02881,8.58784,22.60114,88.43176,0
bike_v1,1.76351E+12,-0.51715,12.92151,-8.54251,-86.49017,-56.48276,-3.46436,22.60114,88.43176,0
bike_v1,1.76351E+12,4.85544,1.12049,27.16461,-167.07758,-2.3252,10.13411,22.60114,88.43176,0
bike_v1,1.76351E+12,-0.79248,15.00925,2.22182,-76.38806,-81.06822,-19.63035,22.60114,88.43176,0
bike_v1,1.76351E+12,4.98952,9.67497,29.72641,-118.1658,-17.79544,9.52816,22.60114,88.43176,0
bike_v1,1.76351E+12,-2.06859,9.90721,-8.29112,-74.11298,-49.22119,-14.00897,22.60114,88.43176,0
bike_v1,1.76351E+12,2.34632,9.89045,14.17367,-105.22146,-34.54489,9.39953,22.60114,88.43176,0
bike_v1,1.76351E+12,-1.66876,0.9912,17.39388,-30.64394,-3.24663,-5.48015,22.60114,88.43176,0
bike_v1,1.76351E+12,1.39103,4.3359,-18.33001,-108.10746,-13.27168,4.33977,22.60114,88.43176,0
bike_v1,1.76351E+12,0.59616,4.08211,18.25818,-98.44482,-12.59627,1.87013,22.60114,88.43176,0
bike_v1,1.76351E+12,-1.72622,11.03248,-9.42118,-78.04478,-49.03659,-10.383,22.60114,88.43176,0
bike_v1,1.76351E+12,3.56257,-0.96965,21.42092,164.84944,2.55675,9.44259,22.60114,88.43176,0
bike_v1,1.76351E+12,1.26653,3.40216,-4.83389,-113.20459,-34.24829,14.68208,22.60114,88.43176,0
bike_v1,1.76351E+12,0.80206,8.56406,-1.32399,-111.36985,-79.7542,31.20692,22.60114,88.43176,0
bike_v1,1.76351E+12,5.37259,5.06852,19.91497,-137.55994,-13.8054,15.09763,22.60114,88.43176,0
bike_v1,1.76351E+12,2.09971,15.90468,-7.49625,-103.75555,-63.91995,15.64767,22.60114,88.43176,0
bike_v1,1.76351E+12,-0.577,7.3502,5.59046,-83.60754,-52.59751,-5.89275,22.60114,88.43176,0
bike_v1,1.76351E+12,-0.56264,4.61602,8.09958,-82.35909,-29.61989,-3.97367,22.60114,88.43176,0
bike_v1,1.76351E+12,1.2378,10.16339,-9.22486,-99.13691,-47.51685,7.64236,22.60114,88.43176,0
bike_v1,1.76351E+12,2.98318,4.61123,31.16772,-123.12753,-8.37807,5.46733,22.60114,88.43176,0
bike_v1,1.76351E+12,2.44448,2.58574,-5.9041,-135.59271,-22.03047,22.49106,22.60114,88.43176,0
bike_v1,1.76351E+12,1.47243,0.77333,5.72693,-152.67256,-7.45087,14.41885,22.60114,88.43176,0
bike_v1,1.76351E+12,3.78523,5.21457,19.88384,-126.72561,-14.44669,10.77827,22.60114,88.43176,0
bike_v1,1.76351E+12,3.63679,0.97205,5.97353,-165.82697,-7.91298,31.33379,22.60114,88.43176,0
bike_v1,1.76351E+12,2.22661,9.78989,13.18966,-104.82607,-36.19981,9.58202,22.60114,88.43176,0
bike_v1,1.76351E+12,-5.07092,15.4857,-5.26006,-55.82857,-64.74152,-43.95111,22.60114,88.43176,0
bike_v1,1.76351E+12,0.64165,-2.5618,17.43458,104.16096,8.35352,2.10771,22.60114,88.43176,0
bike_v1,1.76351E+12,3.11486,6.49068,2.35111,-131.91702,-58.98331,52.95435,22.60114,88.43176,0
bike_v1,1.76351E+12,-2.22661,8.06367,-6.86178,-69.53865,-48.18323,-17.97794,22.60114,88.43176,0
bike_v1,1.76351E+12,2.95923,-1.71664,23.99948,149.98611,4.06065,7.02932,22.60114,88.43176,0
bike_v1,1.76351E+12,4.5849,9.87129,2.63362,-134.20213,-61.82471,60.1264,22.60114,88.43176,0
bike_v1,1.76351E+12,0.26815,0.00958,14.60463,-177.95457,-0.03757,1.05187,22.60114,88.43176,0
bike_v1,1.76351E+12,2.90656,11.79144,16.58463,-105.85355,-35.00403,9.94049,22.60114,88.43176,0
bike_v1,1.76351E+12,2.19548,6.59842,-14.46337,-109.5717,-24.27771,8.63139,22.60114,88.43176,0
bike_v1,1.76351E+12,0.06943,4.61602,31.91232,-90.86773,-8.23056,0.12466,22.60114,88.43176,0
bike_v1,1.76351E+12,4.00311,5.82988,2.11887,-139.97743,-52.15604,62.10745,22.60114,88.43176,0
bike_v1,1.76351E+12,4.26407,4.28323,13.52485,-136.15657,-16.80629,17.49887,22.60114,88.43176,0
bike_v1,1.76351E+12,-3.36864,7.94875,7.16345,-60.82936,-45.11833,-25.18545,22.60114,88.43176,0
bike_v1,1.76351E+12,1.18992,12.66054,7.41963,-98.73357,-59.30948,9.11119,22.60114,88.43176,0
bike_v1,1.76351E+12,1.86029,-1.5706,23.69541,139.89638,3.78058,4.48901,22.60114,88.43176,0
bike_v1,1.76351E+12,1.76453,9.75158,8.24084,-103.81043,-49.16536,12.08566,22.60114,88.43176,0
bike_v1,1.76351E+12,-1.48201,3.52187,13.50809,-66.68793,-14.52956,-6.26104,22.60114,88.43176,0
bike_v1,1.76351E+12,1.63285,6.83305,18.57422,-104.01584,-20.12611,5.02391,22.60114,88.43176,0
bike_v1,1.76351E+12,-2.89698,9.07163,6.1938,-64.68488,-52.99255,-25.06658,22.60114,88.43176,0
bike_v1,1.76351E+12,-0.16759,10.27112,10.75715,-88.82915,-43.6725,-0.89258,22.60114,88.43176,0
bike_v1,1.76351E+12,-4.38139,5.8203,3.82354,-42.64387,-45.02536,-48.88952,22.60114,88.43176,0
bike_v1,1.76351E+12,2.55222,4.76686,2.38941,-131.10265,-53.74254,46.88697,22.60114,88.43176,0
bike_v1,1.76351E+12,-2.24576,5.60243,10.84813,-66.44341,-26.8266,-11.69606,22.60114,88.43176,0
bike_v1,1.76351E+12,3.97437,9.80904,12.47858,-115.62398,-36.83318,17.66646,22.60114,88.43176,0
bike_v1,1.76351E+12,6.7708,1.82678,15.6892,-165.35031,-6.10202,23.343,22.60114,88.43176,0
bike_v1,1.76351E+12,-0.24421,12.38042,1.34075,-82.97065,-83.71831,-10.32285,22.60114,88.43176,0
bike_v1,1.76351E+12,1.22104,-0.18196,9.88087,171.5461,1.04704,7.04469,22.60114,88.43176,0
bike_v1,1.76351E+12,-1.05345,5.13317,21.24854,-78.18238,-13.56512,-2.83826,22.60114,88.43176,0
bike_v1,1.76351E+12,-1.53947,10.69969,-3.63919,-71.79753,-69.73074,-22.92963,22.60114,88.43176,0
bike_v1,1.76351E+12,-0.88825,2.92093,25.62514,-73.01364,-6.49902,-1.98526,22.60114,88.43176,0
bike_v1,1.76351E+12,2.69108,5.56652,-2.71263,-128.87624,-55.53308,44.77153,22.60114,88.43176,0
bike_v1,1.76351E+12,-3.27287,3.34231,8.88009,-43.87267,-19.45113,-20.23202,22.60114,88.43176,0
bike_v1,1.76351E+12,1.10612,9.13627,16.61576,-97.54594,-28.75101,3.8086,22.60114,88.43176,0
bike_v1,1.76351E+12,-0.16999,7.2281,-6.01184,-88.15345,-50.23735,-1.61963,22.60114,88.43176,0
bike_v1,1.76351E+12,-0.69192,5.30316,16.77138,-82.326,-17.5331,-2.36247,22.60114,88.43176,0
bike_v1,1.76351E+12,-3.22738,3.82115,-2.24816,-38.69809,-44.17197,-55.1394,22.60114,88.43176,0
bike_v1,1.76351E+12,0.18675,5.73411,26.43438,-91.89423,-12.23862,0.40476,22.60114,88.43176,0
bike_v1,1.76351E+12,0.96486,4.6663,3.44047,-106.59797,-52.55704,15.66591,22.60114,88.43176,0
bike_v1,1.76351E+12,-0.66798,10.73081,-1.05584,-68.80787,-83.35887,-32.31961,22.60114,88.43176,0
bike_v1,1.76351E+12,-3.47638,5.19063,23.93962,-55.6959,-12.1104,-8.26242,22.60114,88.43176,0
bike_v1,1.76351E+12,1.42216,8.7963,9.55526,-101.31207,-42.31915,8.46547,22.60114,88.43176,0
bike_v1,1.76351E+12,-0.06225,2.90896,-10.3645,-88.74256,-15.67732,-0.34412,22.60114,88.43176,0
bike_v1,1.76351E+12,-0.96007,10.31183,27.53811,-84.44154,-20.51732,-1.99672,22.60114,88.43176,0
bike_v1,1.76351E+12,-0.50039,-3.78044,-20.99954,82.37952,10.20253,-1.36502,22.60114,88.43176,0
bike_v1,1.76351E+12,-2.727,6.2752,15.37317,-65.32632,-21.89606,-10.05888,22.60114,88.43176,0
bike_v1,1.76351E+12,-2.66714,8.47308,-10.23521,-69.32208,-38.69768,-14.60559,22.60114,88.43176,0
bike_v1,1.76351E+12,2.50673,7.87932,1.31202,-131.60167,-70.24766,62.37243,22.60114,88.43176,0
bike_v1,1.76351E+12,-2.63362,-0.52672,8.87531,11.14599,3.25635,-16.52751,22.60114,88.43176,0
