device_id,timestamp,ax,ay,az,azimuth,pitch,roll,lat,lon,speed
bike_v1,1763573981531,-0.55306,6.16986,6.85699,-86.7908,-39.45648,-2.21231,22.59609,88.43366,0
bike_v1,1763573981552,1.60651,5.82509,11.03488,-83.71786,-41.88823,-4.61129,22.59609,88.43366,0
bike_v1,1763573981571,0.43335,6.76841,4.88417,-106.71598,-27.58138,8.2832,22.59609,88.43366,0
bike_v1,1763573981591,1.00317,6.38294,8.29112,-95.35629,-54.07863,5.07032,22.59609,88.43366,0
bike_v1,1763573981611,1.24977,8.56885,7.92002,-100.45415,-37.38992,6.89887,22.59609,88.43366,0
bike_v1,1763573981631,1.49877,6.53617,7.29034,-100.82387,-46.90202,8.96729,22.59609,88.43366,0
bike_v1,1763573981651,0.83797,5.19302,5.59764,-105.71456,-41.28914,11.61717,22.59609,88.43366,0
bike_v1,1763573981671,1.68791,5.3247,7.85538,-101.31869,-42.53613,8.51399,22.59609,88.43366,0
bike_v1,1763573981691,1.10852,6.42364,8.78193,-109.8821,-33.53307,12.12695,22.59609,88.43366,0
bike_v1,1763573981711,0.64643,7.58962,8.16662,-101.31072,-35.96849,7.19422,22.59609,88.43366,0
bike_v1,1763573981731,-0.45729,6.69419,5.3247,-96.03437,-42.81351,4.52585,22.59609,88.43366,0
bike_v1,1763573981751,0.30885,7.28556,9.3326,-84.54469,-51.39789,-4.90859,22.59609,88.43366,0
bike_v1,1763573981771,-1.87945,8.43717,8.89446,-92.85838,-37.9624,1.89545,22.59609,88.43366,0
bike_v1,1763573981792,-1.13485,6.62954,5.46836,-74.44527,-42.8642,-11.9314,22.59609,88.43366,0
bike_v1,1763573981810,0.57221,5.19781,10.86728,-76.775,-49.88847,-11.72421,22.59609,88.43366,0
bike_v1,1763573981831,-0.60573,6.53856,4.59926,-96.73302,-25.5309,3.01411,22.59609,88.43366,0
bike_v1,1763573981851,2.229,1.95367,8.78433,-82.18214,-54.64508,-7.5028,22.59609,88.43366,0
bike_v1,1763573981870,-0.40462,5.02782,5.1188,-139.48914,-12.16521,14.23816,22.59609,88.43366,0
bike_v1,1763573981891,2.2697,2.78924,9.92636,-84.18735,-44.39706,-4.5196,22.59609,88.43366,0
bike_v1,1763573981911,-0.31364,4.31914,5.7413,-130.05571,-15.31892,12.8795,22.59609,88.43366,0
bike_v1,1763573981930,2.57616,3.10767,10.76912,-85.15803,-36.9129,-3.12689,22.59609,88.43366,0
bike_v1,1763573981950,0.22027,4.12521,5.64553,-130.63478,-15.677,13.45333,22.59609,88.43366,0
bike_v1,1763573981970,1.67355,4.01029,12.1817,-93.53825,-36.13499,2.23433,22.59609,88.43366,0
bike_v1,1763573981990,-1.18752,6.29196,5.87058,-113.41532,-18.06335,7.82245,22.59609,88.43366,0
bike_v1,1763573982011,0.44532,8.32703,9.55526,-76.15797,-46.41084,-11.4357,22.59609,88.43366,0
bike_v1,1763573982030,-1.50595,10.22324,7.08684,-93.72,-41.04008,2.66833,22.59609,88.43366,0
bike_v1,1763573982051,-0.27054,9.17458,5.29358,-77.62424,-54.67529,-11.9969,22.59609,88.43366,0
bike_v1,1763573982070,-0.01197,8.69574,7.44836,-87.20757,-59.98341,-2.92573,22.59609,88.43366,0
bike_v1,1763573982092,0.14605,7.72848,4.48913,-89.89323,-49.41815,-0.09209,22.59609,88.43366,0
bike_v1,1763573982111,1.11091,4.85065,7.19697,-91.78367,-59.83647,1.86337,22.59609,88.43366,0
bike_v1,1763573982130,1.65679,2.16196,9.84735,-104.60812,-33.66745,8.77481,22.59609,88.43366,0
bike_v1,1763573982150,1.78368,2.02549,6.7732,-128.0175,-12.21626,9.5504,22.59609,88.43366,0
bike_v1,1763573982170,0.68714,2.53067,9.46189,-132.44957,-16.12914,14.75353,22.59609,88.43366,0
bike_v1,1763573982193,0.56503,3.20823,6.78277,-105.54068,-14.93625,4.15361,22.59609,88.43366,0
bike_v1,1763573982210,0.52194,3.11725,8.77236,-100.6853,-25.2375,4.76197,22.59609,88.43366,0
bike_v1,1763573982230,0.67995,3.45723,5.98311,-99.88948,-19.53072,3.40496,22.59609,88.43366,0
bike_v1,1763573982250,1.31681,4.11324,8.77236,-102.24997,-29.86166,6.48359,22.59609,88.43366,0
bike_v1,1763573982270,1.13964,6.01663,8.81306,-108.94054,-24.87675,8.53688,22.59609,88.43366,0
bike_v1,1763573982290,0.02155,8.10677,6.53856,-102.19269,-34.10027,7.36818,22.59609,88.43366,0
bike_v1,1763573982310,0.31364,5.8227,8.86573,-90.21166,-51.11171,0.18882,22.59609,88.43366,0
bike_v1,1763573982330,0.32322,6.32548,8.94234,-93.48398,-33.27905,2.02609,22.59609,88.43366,0
bike_v1,1763573982350,0.24421,6.2345,6.06451,-93.36017,-35.25653,2.07003,22.59609,88.43366,0
bike_v1,1763573982370,0.11013,7.57286,9.46667,-92.8843,-45.76865,2.30597,22.59609,88.43366,0
bike_v1,1763573982390,0.00718,5.96874,5.38935,-90.98784,-38.65614,0.66654,22.59609,88.43366,0
bike_v1,1763573982409,2.07817,6.21774,8.0517,-90.0913,-47.9202,0.07636,22.59609,88.43366,0
bike_v1,1763573982430,-0.84755,7.79791,6.11719,-111.47551,-36.78632,14.47235,22.59609,88.43366,0
bike_v1,1763573982450,1.51074,4.76686,8.26239,-81.31203,-51.62225,-7.88822,22.59609,88.43366,0
bike_v1,1763573982469,1.48919,6.86896,7.06768,-109.30768,-29.576,10.36182,22.59609,88.43366,0
bike_v1,1763573982492,0.76614,5.72693,7.32626,-105.27723,-43.56137,11.89844,22.59609,88.43366,0
bike_v1,1763573982511,1.20428,5.9472,7.66384,-98.96014,-37.86363,5.97002,22.59609,88.43366,0
bike_v1,1763573982529,-1.47722,6.24168,7.69736,-103.40408,-37.4738,8.93034,22.59609,88.43366,0
bike_v1,1763573981531,-0.55306,6.16986,6.85699,-86.7908,-39.45648,-2.21231,22.59609,88.43366,0
bike_v1,1763573981552,1.60651,5.82509,11.03488,-83.71786,-41.88823,-4.61129,22.59609,88.43366,0
bike_v1,1763573981571,0.43335,6.76841,4.88417,-106.71598,-27.58138,8.2832,22.59609,88.43366,0
bike_v1,1763573981591,1.00317,6.38294,8.29112,-95.35629,-54.07863,5.07032,22.59609,88.43366,0
bike_v1,1763573981611,1.24977,8.56885,7.92002,-100.45415,-37.38992,6.89887,22.59609,88.43366,0
bike_v1,1763573981631,1.49877,6.53617,7.29034,-100.82387,-46.90202,8.96729,22.59609,88.43366,0
bike_v1,1763573981651,0.83797,5.19302,5.59764,-105.71456,-41.28914,11.61717,22.59609,88.43366,0
bike_v1,1763573981671,1.68791,5.3247,7.85538,-101.31869,-42.53613,8.51399,22.59609,88.43366,0
bike_v1,1763573981691,1.10852,6.42364,8.78193,-109.8821,-33.53307,12.12695,22.59609,88.43366,0
bike_v1,1763573981711,0.64643,7.58962,8.16662,-101.31072,-35.96849,7.19422,22.59609,88.43366,0
bike_v1,1763573981731,-0.45729,6.69419,5.3247,-96.03437,-42.81351,4.52585,22.59609,88.43366,0
bike_v1,1763573981751,0.30885,7.28556,9.3326,-84.54469,-51.39789,-4.90859,22.59609,88.43366,0
bike_v1,1763573981771,-1.87945,8.43717,8.89446,-92.85838,-37.9624,1.89545,22.59609,88.43366,0
bike_v1,1763573981792,-1.13485,6.62954,5.46836,-74.44527,-42.8642,-11.9314,22.59609,88.43366,0
bike_v1,1763573981810,0.57221,5.19781,10.86728,-76.775,-49.88847,-11.72421,22.59609,88.43366,0
bike_v1,1763573981831,-0.60573,6.53856,4.59926,-96.73302,-25.5309,3.01411,22.59609,88.43366,0
bike_v1,1763573981851,2.229,1.95367,8.78433,-82.18214,-54.64508,-7.5028,22.59609,88.43366,0
bike_v1,1763573981870,-0.40462,5.02782,5.1188,-139.48914,-12.16521,14.23816,22.59609,88.43366,0
bike_v1,1763573981891,2.2697,2.78924,9.92636,-84.18735,-44.39706,-4.5196,22.59609,88.43366,0
bike_v1,1763573981911,-0.31364,4.31914,5.7413,-130.05571,-15.31892,12.8795,22.59609,88.43366,0
bike_v1,1763573981930,2.57616,3.10767,10.76912,-85.15803,-36.9129,-3.12689,22.59609,88.43366,0
bike_v1,1763573981950,0.22027,4.12521,5.64553,-130.63478,-15.677,13.45333,22.59609,88.43366,0
bike_v1,1763573981970,1.67355,4.01029,12.1817,-93.53825,-36.13499,2.23433,22.59609,88.43366,0
bike_v1,1763573981990,-1.18752,6.29196,5.87058,-113.41532,-18.06335,7.82245,22.59609,88.43366,0
bike_v1,1763573982011,0.44532,8.32703,9.55526,-76.15797,-46.41084,-11.4357,22.59609,88.43366,0
bike_v1,1763573982030,-1.50595,10.22324,7.08684,-93.72,-41.04008,2.66833,22.59609,88.43366,0
bike_v1,1763573982051,-0.27054,9.17458,5.29358,-77.62424,-54.67529,-11.9969,22.59609,88.43366,0
bike_v1,1763573982070,-0.01197,8.69574,7.44836,-87.20757,-59.98341,-2.92573,22.59609,88.43366,0
bike_v1,1763573982092,0.14605,7.72848,4.48913,-89.89323,-49.41815,-0.09209,22.59609,88.43366,0
bike_v1,1763573982111,1.11091,4.85065,7.19697,-91.78367,-59.83647,1.86337,22.59609,88.43366,0
bike_v1,1763573982130,1.65679,2.16196,9.84735,-104.60812,-33.66745,8.77481,22.59609,88.43366,0
bike_v1,1763573982150,1.78368,2.02549,6.7732,-128.0175,-12.21626,9.5504,22.59609,88.43366,0
bike_v1,1763573982170,0.68714,2.53067,9.46189,-132.44957,-16.12914,14.75353,22.59609,88.43366,0
bike_v1,1763573982193,0.56503,3.20823,6.78277,-105.54068,-14.93625,4.15361,22.59609,88.43366,0
bike_v1,1763573982210,0.52194,3.11725,8.77236,-100.6853,-25.2375,4.76197,22.59609,88.43366,0
bike_v1,1763573982230,0.67995,3.45723,5.98311,-99.88948,-19.53072,3.40496,22.59609,88.43366,0
bike_v1,1763573982250,1.31681,4.11324,8.77236,-102.24997,-29.86166,6.48359,22.59609,88.43366,0
bike_v1,1763573982270,1.13964,6.01663,8.81306,-108.94054,-24.87675,8.53688,22.59609,88.43366,0
bike_v1,1763573982290,0.02155,8.10677,6.53856,-102.19269,-34.10027,7.36818,22.59609,88.43366,0
bike_v1,1763573982310,0.31364,5.8227,8.86573,-90.21166,-51.11171,0.18882,22.59609,88.43366,0
bike_v1,1763573982330,0.32322,6.32548,8.94234,-93.48398,-33.27905,2.02609,22.59609,88.43366,0
bike_v1,1763573982350,0.24421,6.2345,6.06451,-93.36017,-35.25653,2.07003,22.59609,88.43366,0
bike_v1,1763573982370,0.11013,7.57286,9.46667,-92.8843,-45.76865,2.30597,22.59609,88.43366,0
bike_v1,1763573982390,0.00718,5.96874,5.38935,-90.98784,-38.65614,0.66654,22.59609,88.43366,0
bike_v1,1763573982409,2.07817,6.21774,8.0517,-90.0913,-47.9202,0.07636,22.59609,88.43366,0
bike_v1,1763573982430,-0.84755,7.79791,6.11719,-111.47551,-36.78632,14.47235,22.59609,88.43366,0
bike_v1,1763573982450,1.51074,4.76686,8.26239,-81.31203,-51.62225,-7.88822,22.59609,88.43366,0
bike_v1,1763573982469,1.48919,6.86896,7.06768,-109.30768,-29.576,10.36182,22.59609,88.43366,0
bike_v1,1763573982492,0.76614,5.72693,7.32626,-105.27723,-43.56137,11.89844,22.59609,88.43366,0
bike_v1,1763573982511,1.20428,5.9472,7.66384,-98.96014,-37.86363,5.97002,22.59609,88.43366,0
bike_v1,1763573982529,-1.47722,6.24168,7.69736,-103.40408,-37.4738,8.93034,22.59609,88.43366,0
bike_v1,1763573982549,0.91698,7.3909,7.98466,-74.25481,-38.5322,-10.86371,22.59609,88.43366,0
bike_v1,1763573982569,-0.44772,5.98072,7.90087,-98.74252,-42.60143,6.5513,22.59609,88.43366,0
bike_v1,1763573982590,1.98719,5.96156,6.49307,-85.00127,-37.08043,-3.24329,22.59609,88.43366,0
bike_v1,1763573982609,-0.55067,5.67186,7.29513,-112.40193,-41.28137,17.01658,22.59609,88.43366,0
bike_v1,1763573982629,2.19788,6.71334,6.73968,-83.48265,-37.78574,-4.31673,22.59609,88.43366,0
bike_v1,1763573982650,0.11971,5.05895,6.75883,-112.57632,-43.44096,18.06167,22.59609,88.43366,0
bike_v1,1763573982669,1.64003,6.60081,8.02297,-91.57899,-36.81033,1.0147,22.59609,88.43366,0
bike_v1,1763573982691,0.43814,5.34386,9.3733,-106.55263,-38.87126,11.55304,22.59609,88.43366,0
bike_v1,1763573982710,-0.29209,7.01022,6.99107,-95.15567,-29.66122,2.67625,22.59609,88.43366,0
bike_v1,1763573982729,1.32639,6.75165,7.21612,-86.96027,-45.05341,-2.39247,22.59609,88.43366,0
bike_v1,1763573982753,-0.70868,5.37738,8.33422,-103.7322,-42.62082,10.41522,22.59609,88.43366,0
bike_v1,1763573982775,-0.18435,6.63912,6.21535,-81.55515,-32.73683,-4.86034,22.59609,88.43366,0
bike_v1,1763573982792,0.86191,6.0286,7.88171,-87.92429,-46.87563,-1.69895,22.59609,88.43366,0
bike_v1,1763573982810,-0.73023,6.42364,7.1443,-99.51157,-37.2476,6.24084,22.59609,88.43366,0
bike_v1,1763573982829,0.89304,6.3159,6.69898,-82.05403,-41.81163,-5.83604,22.59609,88.43366,0
bike_v1,1763573982850,0.43335,6.91924,9.14585,-100.00034,-43.06226,7.5933,22.59609,88.43366,0
bike_v1,1763573982870,1.2809,6.17943,6.22492,-94.1845,-37.07822,2.71277,22.59609,88.43366,0
bike_v1,1763573982891,0.15562,7.38611,8.56885,-104.7398,-44.19598,11.62742,22.59609,88.43366,0
bike_v1,1763573982909,1.0726,4.77404,8.18338,-91.4624,-40.75577,1.04046,22.59609,88.43366,0
bike_v1,1763573982929,-0.06704,7.90087,8.54491,-103.95651,-30.04659,7.46724,22.59609,88.43366,0
bike_v1,1763573982949,0.41899,5.26724,7.80989,-89.39767,-42.75648,-0.4495,22.59609,88.43366,0
bike_v1,1763573982970,1.92015,6.22253,6.82108,-95.16714,-33.95886,3.07086,22.59609,88.43366,0
bike_v1,1763573982991,-0.44532,6.51462,6.8139,-110.84675,-41.28703,15.72203,22.59609,88.43366,0
bike_v1,1763573983010,1.12527,5.22415,8.76757,-85.10406,-43.65273,-3.73924,22.59609,88.43366,0
bike_v1,1763573983029,-0.33998,7.39329,8.41562,-103.44913,-30.58316,7.31365,22.59609,88.43366,0
bike_v1,1763573983049,-0.30406,7.04853,8.99262,-86.79217,-41.27681,-2.31339,22.59609,88.43366,0
bike_v1,1763573983069,0.67756,5.60004,5.55215,-87.08823,-38.07391,-1.93658,22.59609,88.43366,0
bike_v1,1763573983090,2.29843,6.39252,8.40604,-98.78265,-45.03427,6.95771,22.59609,88.43366,0
bike_v1,1763573983109,-0.7853,6.85939,7.61596,-112.86635,-36.26157,15.29239,22.59609,88.43366,0
bike_v1,1763573983129,0.21308,4.60166,7.94875,-81.99409,-41.85748,-5.88709,22.59609,88.43366,0
bike_v1,1763573983149,2.20027,5.38456,7.41005,-92.9245,-30.0583,1.53557,22.59609,88.43366,0
bike_v1,1763573983170,0.22984,7.1036,8.36295,-115.37933,-34.8609,16.53776,22.59609,88.43366,0
bike_v1,1763573983193,-0.09098,7.59441,8.85136,-92.23518,-40.33434,1.57429,22.59609,88.43366,0
bike_v1,1763573983209,0.52194,6.0717,5.31034,-89.16956,-40.62787,-0.5889,22.59609,88.43366,0
bike_v1,1763573983229,2.46842,5.16669,7.85059,-96.57645,-48.69035,5.61339,22.59609,88.43366,0
bike_v1,1763573983249,1.0726,6.39491,8.41801,-118.51907,-32.12161,17.45446,22.59609,88.43366,0
bike_v1,1763573983270,-0.51715,7.38851,7.34781,-101.1031,-37.00085,7.26136,22.59609,88.43366,0
bike_v1,1763573983291,-0.56503,5.94959,8.2983,-84.89753,-45.08746,-4.02591,22.59609,88.43366,0
bike_v1,1763573983309,-0.3304,5.49948,5.89692,-83.75159,-35.57648,-3.89526,22.59609,88.43366,0
bike_v1,1763573983329,1.83635,3.77805,7.65426,-85.73068,-42.95789,-3.20689,22.59609,88.43366,0
bike_v1,1763573983349,0.31603,6.70616,6.87854,-117.75243,-25.63951,13.49099,22.59609,88.43366,0
bike_v1,1763573983369,0.98881,7.94636,10.24958,-93.40271,-44.2428,2.6306,22.59609,88.43366,0
bike_v1,1763573983389,0.76854,9.11473,6.88812,-98.32502,-37.65749,5.51043,22.59609,88.43366,0
bike_v1,1763573983409,1.09415,7.3502,6.6487,-96.8817,-52.75055,6.36642,22.59609,88.43366,0
bike_v1,1763573983429,-0.15802,6.06212,5.0805,-101.13307,-47.48767,9.34518,22.59609,88.43366,0
bike_v1,1763573983449,1.90818,5.38456,8.17141,-87.96029,-50.0209,-1.78148,22.59609,88.43366,0
bike_v1,1763573983469,1.95606,5.17148,7.28795,-111.90559,-32.68777,13.14411,22.59609,88.43366,0
bike_v1,1763573983489,1.65679,4.84586,6.49068,-113.57809,-34.42429,15.02393,22.59609,88.43366,0
bike_v1,1763573983509,1.42216,6.24168,9.8258,-111.7555,-35.88171,14.31934,22.59609,88.43366,0
bike_v1,1763573983528,0.09577,8.20014,6.83066,-104.36512,-32.15688,8.23562,22.59609,88.43366,0
bike_v1,1763573983549,-1.0319,6.80911,6.99346,-90.91666,-50.20319,0.80325,22.59609,88.43366,0
bike_v1,1763573985366,0.07661,5.39174,5.0374,-105.9716,-37.306,10.67732,22.59609,88.43366,0
bike_v1,1763573985386,1.80762,4.93445,7.66863,-91.06341,-46.94263,0.87135,22.59609,88.43366,0
bike_v1,1763573985408,1.5706,5.92804,8.33182,-112.47604,-32.05872,13.26345,22.59609,88.43366,0
bike_v1,1763573985427,0.16759,7.57047,8.08282,-106.98025,-34.96048,10.67531,22.59609,88.43366,0
bike_v1,1763573985446,-1.06781,7.07965,6.0693,-91.57797,-43.11914,1.18783,22.59609,88.43366,0
bike_v1,1763573985466,0.25379,5.65032,9.01178,-78.481,-48.96191,-9.97832,22.59609,88.43366,0
bike_v1,1763573985486,-1.13485,7.01262,9.47146,-92.87889,-32.07718,1.61311,22.59609,88.43366,0
bike_v1,1763573985506,-1.69031,6.02621,5.82749,-79.34634,-36.32095,-6.83249,22.59609,88.43366,0
bike_v1,1763573985530,0.577,3.85466,9.69652,-70.14914,-44.80351,-16.1752,22.59609,88.43366,0
bike_v1,1763573985546,-0.83558,5.20978,4.11324,-98.94128,-21.64461,3.40544,22.59609,88.43366,0
bike_v1,1763573985566,2.55461,1.42694,9.09078,-77.3455,-51.1434,-11.48299,22.59609,88.43366,0
bike_v1,1763573985586,-0.00718,4.67348,4.956,-151.30051,-8.59311,15.69596,22.59609,88.43366,0
bike_v1,1763573981531,-0.55306,6.16986,6.85699,-86.7908,-39.45648,-2.21231,22.59609,88.43366,0
bike_v1,1763573981552,1.60651,5.82509,11.03488,-83.71786,-41.88823,-4.61129,22.59609,88.43366,0
bike_v1,1763573981571,0.43335,6.76841,4.88417,-106.71598,-27.58138,8.2832,22.59609,88.43366,0
bike_v1,1763573981591,1.00317,6.38294,8.29112,-95.35629,-54.07863,5.07032,22.59609,88.43366,0
bike_v1,1763573981611,1.24977,8.56885,7.92002,-100.45415,-37.38992,6.89887,22.59609,88.43366,0
bike_v1,1763573981631,1.49877,6.53617,7.29034,-100.82387,-46.90202,8.96729,22.59609,88.43366,0
bike_v1,1763573981651,0.83797,5.19302,5.59764,-105.71456,-41.28914,11.61717,22.59609,88.43366,0
bike_v1,1763573981671,1.68791,5.3247,7.85538,-101.31869,-42.53613,8.51399,22.59609,88.43366,0
bike_v1,1763573981691,1.10852,6.42364,8.78193,-109.8821,-33.53307,12.12695,22.59609,88.43366,0
bike_v1,1763573981711,0.64643,7.58962,8.16662,-101.31072,-35.96849,7.19422,22.59609,88.43366,0
bike_v1,1763573981731,-0.45729,6.69419,5.3247,-96.03437,-42.81351,4.52585,22.59609,88.43366,0
bike_v1,1763573981751,0.30885,7.28556,9.3326,-84.54469,-51.39789,-4.90859,22.59609,88.43366,0
bike_v1,1763573981771,-1.87945,8.43717,8.89446,-92.85838,-37.9624,1.89545,22.59609,88.43366,0
bike_v1,1763573981792,-1.13485,6.62954,5.46836,-74.44527,-42.8642,-11.9314,22.59609,88.43366,0
bike_v1,1763573981810,0.57221,5.19781,10.86728,-76.775,-49.88847,-11.72421,22.59609,88.43366,0
bike_v1,1763573981831,-0.60573,6.53856,4.59926,-96.73302,-25.5309,3.01411,22.59609,88.43366,0
bike_v1,1763573981851,2.229,1.95367,8.78433,-82.18214,-54.64508,-7.5028,22.59609,88.43366,0
bike_v1,1763573981870,-0.40462,5.02782,5.1188,-139.48914,-12.16521,14.23816,22.59609,88.43366,0
bike_v1,1763573981891,2.2697,2.78924,9.92636,-84.18735,-44.39706,-4.5196,22.59609,88.43366,0
bike_v1,1763573981911,-0.31364,4.31914,5.7413,-130.05571,-15.31892,12.8795,22.59609,88.43366,0
bike_v1,1763573981930,2.57616,3.10767,10.76912,-85.15803,-36.9129,-3.12689,22.59609,88.43366,0
bike_v1,1763573981950,0.22027,4.12521,5.64553,-130.63478,-15.677,13.45333,22.59609,88.43366,0
bike_v1,1763573981970,1.67355,4.01029,12.1817,-93.53825,-36.13499,2.23433,22.59609,88.43366,0
bike_v1,1763573981990,-1.18752,6.29196,5.87058,-113.41532,-18.06335,7.82245,22.59609,88.43366,0
bike_v1,1763573982011,0.44532,8.32703,9.55526,-76.15797,-46.41084,-11.4357,22.59609,88.43366,0
bike_v1,1763573982030,-1.50595,10.22324,7.08684,-93.72,-41.04008,2.66833,22.59609,88.43366,0
bike_v1,1763573982051,-0.27054,9.17458,5.29358,-77.62424,-54.67529,-11.9969,22.59609,88.43366,0
bike_v1,1763573982070,-0.01197,8.69574,7.44836,-87.20757,-59.98341,-2.92573,22.59609,88.43366,0
bike_v1,1763573982092,0.14605,7.72848,4.48913,-89.89323,-49.41815,-0.09209,22.59609,88.43366,0
bike_v1,1763573982111,1.11091,4.85065,7.19697,-91.78367,-59.83647,1.86337,22.59609,88.43366,0
bike_v1,1763573982130,1.65679,2.16196,9.84735,-104.60812,-33.66745,8.77481,22.59609,88.43366,0
bike_v1,1763573982150,1.78368,2.02549,6.7732,-128.0175,-12.21626,9.5504,22.59609,88.43366,0
bike_v1,1763573982170,0.68714,2.53067,9.46189,-132.44957,-16.12914,14.75353,22.59609,88.43366,0
bike_v1,1763573982193,0.56503,3.20823,6.78277,-105.54068,-14.93625,4.15361,22.59609,88.43366,0
bike_v1,1763573982210,0.52194,3.11725,8.77236,-100.6853,-25.2375,4.76197,22.59609,88.43366,0
bike_v1,1763573982230,0.67995,3.45723,5.98311,-99.88948,-19.53072,3.40496,22.59609,88.43366,0
bike_v1,1763573982250,1.31681,4.11324,8.77236,-102.24997,-29.86166,6.48359,22.59609,88.43366,0
bike_v1,1763573982270,1.13964,6.01663,8.81306,-108.94054,-24.87675,8.53688,22.59609,88.43366,0
bike_v1,1763573982290,0.02155,8.10677,6.53856,-102.19269,-34.10027,7.36818,22.59609,88.43366,0
bike_v1,1763573982310,0.31364,5.8227,8.86573,-90.21166,-51.11171,0.18882,22.59609,88.43366,0
bike_v1,1763573982330,0.32322,6.32548,8.94234,-93.48398,-33.27905,2.02609,22.59609,88.43366,0
bike_v1,1763573982350,0.24421,6.2345,6.06451,-93.36017,-35.25653,2.07003,22.59609,88.43366,0
bike_v1,1763573982370,0.11013,7.57286,9.46667,-92.8843,-45.76865,2.30597,22.59609,88.43366,0
bike_v1,1763573982390,0.00718,5.96874,5.38935,-90.98784,-38.65614,0.66654,22.59609,88.43366,0
bike_v1,1763573982409,2.07817,6.21774,8.0517,-90.0913,-47.9202,0.07636,22.59609,88.43366,0
bike_v1,1763573982430,-0.84755,7.79791,6.11719,-111.47551,-36.78632,14.47235,22.59609,88.43366,0
bike_v1,1763573982450,1.51074,4.76686,8.26239,-81.31203,-51.62225,-7.88822,22.59609,88.43366,0
bike_v1,1763573982469,1.48919,6.86896,7.06768,-109.30768,-29.576,10.36182,22.59609,88.43366,0
bike_v1,1763573982492,0.76614,5.72693,7.32626,-105.27723,-43.56137,11.89844,22.59609,88.43366,0
bike_v1,1763573982511,1.20428,5.9472,7.66384,-98.96014,-37.86363,5.97002,22.59609,88.43366,0
bike_v1,1763573982529,-1.47722,6.24168,7.69736,-103.40408,-37.4738,8.93034,22.59609,88.43366,0
bike_v1,1763573982549,0.91698,7.3909,7.98466,-74.25481,-38.5322,-10.86371,22.59609,88.43366,0
bike_v1,1763573982569,-0.44772,5.98072,7.90087,-98.74252,-42.60143,6.5513,22.59609,88.43366,0
bike_v1,1763573982590,1.98719,5.96156,6.49307,-85.00127,-37.08043,-3.24329,22.59609,88.43366,0
bike_v1,1763573982609,-0.55067,5.67186,7.29513,-112.40193,-41.28137,17.01658,22.59609,88.43366,0
bike_v1,1763573982629,2.19788,6.71334,6.73968,-83.48265,-37.78574,-4.31673,22.59609,88.43366,0
bike_v1,1763573982650,0.11971,5.05895,6.75883,-112.57632,-43.44096,18.06167,22.59609,88.43366,0
bike_v1,1763573982669,1.64003,6.60081,8.02297,-91.57899,-36.81033,1.0147,22.59609,88.43366,0
bike_v1,1763573982691,0.43814,5.34386,9.3733,-106.55263,-38.87126,11.55304,22.59609,88.43366,0
bike_v1,1763573982710,-0.29209,7.01022,6.99107,-95.15567,-29.66122,2.67625,22.59609,88.43366,0
bike_v1,1763573982729,1.32639,6.75165,7.21612,-86.96027,-45.05341,-2.39247,22.59609,88.43366,0
bike_v1,1763573982753,-0.70868,5.37738,8.33422,-103.7322,-42.62082,10.41522,22.59609,88.43366,0
bike_v1,1763573982775,-0.18435,6.63912,6.21535,-81.55515,-32.73683,-4.86034,22.59609,88.43366,0
bike_v1,1763573982792,0.86191,6.0286,7.88171,-87.92429,-46.87563,-1.69895,22.59609,88.43366,0
bike_v1,1763573982810,-0.73023,6.42364,7.1443,-99.51157,-37.2476,6.24084,22.59609,88.43366,0
bike_v1,1763573982829,0.89304,6.3159,6.69898,-82.05403,-41.81163,-5.83604,22.59609,88.43366,0
bike_v1,1763573982850,0.43335,6.91924,9.14585,-100.00034,-43.06226,7.5933,22.59609,88.43366,0
bike_v1,1763573982870,1.2809,6.17943,6.22492,-94.1845,-37.07822,2.71277,22.59609,88.43366,0
bike_v1,1763573982891,0.15562,7.38611,8.56885,-104.7398,-44.19598,11.62742,22.59609,88.43366,0
bike_v1,1763573982909,1.0726,4.77404,8.18338,-91.4624,-40.75577,1.04046,22.59609,88.43366,0
bike_v1,1763573982929,-0.06704,7.90087,8.54491,-103.95651,-30.04659,7.46724,22.59609,88.43366,0
bike_v1,1763573982949,0.41899,5.26724,7.80989,-89.39767,-42.75648,-0.4495,22.59609,88.43366,0
bike_v1,1763573982970,1.92015,6.22253,6.82108,-95.16714,-33.95886,3.07086,22.59609,88.43366,0
bike_v1,1763573982991,-0.44532,6.51462,6.8139,-110.84675,-41.28703,15.72203,22.59609,88.43366,0
bike_v1,1763573983010,1.12527,5.22415,8.76757,-85.10406,-43.65273,-3.73924,22.59609,88.43366,0
bike_v1,1763573983029,-0.33998,7.39329,8.41562,-103.44913,-30.58316,7.31365,22.59609,88.43366,0
bike_v1,1763573983049,-0.30406,7.04853,8.99262,-86.79217,-41.27681,-2.31339,22.59609,88.43366,0
bike_v1,1763573983069,0.67756,5.60004,5.55215,-87.08823,-38.07391,-1.93658,22.59609,88.43366,0
bike_v1,1763573983090,2.29843,6.39252,8.40604,-98.78265,-45.03427,6.95771,22.59609,88.43366,0
bike_v1,1763573983109,-0.7853,6.85939,7.61596,-112.86635,-36.26157,15.29239,22.59609,88.43366,0
bike_v1,1763573983129,0.21308,4.60166,7.94875,-81.99409,-41.85748,-5.88709,22.59609,88.43366,0
bike_v1,1763573983149,2.20027,5.38456,7.41005,-92.9245,-30.0583,1.53557,22.59609,88.43366,0
bike_v1,1763573983170,0.22984,7.1036,8.36295,-115.37933,-34.8609,16.53776,22.59609,88.43366,0
bike_v1,1763573983193,-0.09098,7.59441,8.85136,-92.23518,-40.33434,1.57429,22.59609,88.43366,0
bike_v1,1763573983209,0.52194,6.0717,5.31034,-89.16956,-40.62787,-0.5889,22.59609,88.43366,0
bike_v1,1763573983229,2.46842,5.16669,7.85059,-96.57645,-48.69035,5.61339,22.59609,88.43366,0
bike_v1,1763573983249,1.0726,6.39491,8.41801,-118.51907,-32.12161,17.45446,22.59609,88.43366,0
bike_v1,1763573983270,-0.51715,7.38851,7.34781,-101.1031,-37.00085,7.26136,22.59609,88.43366,0
bike_v1,1763573983291,-0.56503,5.94959,8.2983,-84.89753,-45.08746,-4.02591,22.59609,88.43366,0
bike_v1,1763573983309,-0.3304,5.49948,5.89692,-83.75159,-35.57648,-3.89526,22.59609,88.43366,0
bike_v1,1763573983329,1.83635,3.77805,7.65426,-85.73068,-42.95789,-3.20689,22.59609,88.43366,0
bike_v1,1763573983349,0.31603,6.70616,6.87854,-117.75243,-25.63951,13.49099,22.59609,88.43366,0
bike_v1,1763573983369,0.98881,7.94636,10.24958,-93.40271,-44.2428,2.6306,22.59609,88.43366,0
bike_v1,1763573983389,0.76854,9.11473,6.88812,-98.32502,-37.65749,5.51043,22.59609,88.43366,0
bike_v1,1763573983409,1.09415,7.3502,6.6487,-96.8817,-52.75055,6.36642,22.59609,88.43366,0
bike_v1,1763573983429,-0.15802,6.06212,5.0805,-101.13307,-47.48767,9.34518,22.59609,88.43366,0
bike_v1,1763573983449,1.90818,5.38456,8.17141,-87.96029,-50.0209,-1.78148,22.59609,88.43366,0
bike_v1,1763573983469,1.95606,5.17148,7.28795,-111.90559,-32.68777,13.14411,22.59609,88.43366,0
bike_v1,1763573983489,1.65679,4.84586,6.49068,-113.57809,-34.42429,15.02393,22.59609,88.43366,0
bike_v1,1763573983509,1.42216,6.24168,9.8258,-111.7555,-35.88171,14.31934,22.59609,88.43366,0
bike_v1,1763573983528,0.09577,8.20014,6.83066,-104.36512,-32.15688,8.23562,22.59609,88.43366,0
bike_v1,1763573983549,-1.0319,6.80911,6.99346,-90.91666,-50.20319,0.80325,22.59609,88.43366,0
bike_v1,1763573983571,-0.70629,7.19458,8.8346,-79.18221,-43.92642,-8.39355,22.59609,88.43366,0
bike_v1,1763573983591,-1.20428,8.0948,10.59195,-83.32704,-39.06877,-4.57084,22.59609,88.43366,0
bike_v1,1763573983609,-1.41976,7.39329,6.62236,-80.11169,-37.21115,-6.48656,22.59609,88.43366,0
bike_v1,1763573983628,-0.38307,6.6463,8.56885,-75.7104,-47.50784,-12.10042,22.59609,88.43366,0
bike_v1,1763573983649,-1.14203,7.1036,5.84425,-86.123,-37.77074,-2.55972,22.59609,88.43366,0
bike_v1,1763573983669,0.15323,6.83784,10.25915,-77.53704,-50.02765,-11.05693,22.59609,88.43366,0
bike_v1,1763573983688,-1.42216,7.10838,5.51624,-91.45534,-33.68094,0.8557,22.59609,88.43366,0
bike_v1,1763573983708,0.07901,6.36618,10.05804,-74.25926,-51.29153,-14.45675,22.59609,88.43366,0
bike_v1,1763573983728,-1.29047,7.31907,6.58166,-90.79754,-32.33075,0.45006,22.59609,88.43366,0
bike_v1,1763573983748,1.02951,5.05177,11.71962,-76.85422,-47.49879,-11.09333,22.59609,88.43366,0
bike_v1,1763573983769,-1.68312,6.87854,6.04775,-102.19029,-23.23862,5.02025,22.59609,88.43366,0
bike_v1,1763573983788,0.36631,6.38534,9.54329,-71.91186,-47.61533,-15.55218,22.59609,88.43366,0
bike_v1,1763573983810,-1.75016,8.15465,5.93283,-93.72466,-33.76666,2.19818,22.59609,88.43366,0
bike_v1,1763573983828,-0.6201,8.84658,10.16339,-72.71508,-52.81839,-16.43585,22.59609,88.43366,0
bike_v1,1763573983848,-1.84354,9.62469,7.38372,-85.13078,-40.98477,-3.49146,22.59609,88.43366,0
bike_v1,1763573983869,-0.64165,9.68215,6.83066,-74.81921,-51.66608,-14.01876,22.59609,88.43366,0
bike_v1,1763573983888,-0.97683,8.99262,7.1443,-84.39471,-54.67879,-5.3664,22.59609,88.43366,0
bike_v1,1763573983909,-0.67516,7.02938,7.86735,-81.3661,-51.27548,-7.78573,22.59609,88.43366,0
bike_v1,1763573983928,-1.01035,6.32548,7.74285,-83.28749,-41.67596,-4.90503,22.59609,88.43366,0
bike_v1,1763573983948,0.69192,5.31752,8.98304,-79.21013,-39.01015,-7.43444,22.59609,88.43366,0
bike_v1,1763573983968,-0.29688,5.40371,5.33668,-98.20428,-30.54922,4.40454,22.59609,88.43366,0
bike_v1,1763573983988,2.12366,4.88178,8.23366,-85.98052,-45.31335,-3.1841,22.59609,88.43366,0
bike_v1,1763573984009,0.26336,7.77637,8.82263,-115.84267,-29.86082,14.46274,22.59609,88.43366,0
bike_v1,1763573984028,0.45729,5.87298,6.51462,-92.36607,-41.38066,1.70981,22.59609,88.43366,0
bike_v1,1763573984051,1.62327,5.65989,8.59997,-95.46553,-41.96486,4.01528,22.59609,88.43366,0
bike_v1,1763573984068,-0.46926,7.50822,6.55532,-108.00315,-32.89114,10.68898,22.59609,88.43366,0
bike_v1,1763573984088,-0.43574,6.05972,8.20493,-85.20422,-48.80367,-4.09454,22.59609,88.43366,0
bike_v1,1763573984110,1.17795,5.95438,5.60004,-85.22713,-36.40906,-3.03999,22.59609,88.43366,0
bike_v1,1763573984134,-0.35434,7.48188,8.41801,-104.43816,-46.13721,11.87878,22.59609,88.43366,0
bike_v1,1763573984148,1.02711,6.08606,5.54258,-86.68436,-41.60532,-2.41034,22.59609,88.43366,0
bike_v1,1763573984168,1.05584,6.76362,8.35576,-102.54156,-47.19397,10.49857,22.59609,88.43366,0
bike_v1,1763573984188,0.50278,5.99029,10.0341,-100.52396,-38.76689,7.20178,22.59609,88.43366,0
bike_v1,1763573984209,-0.22745,8.0924,7.44118,-95.31995,-30.80533,2.86854,22.59609,88.43366,0
bike_v1,1763573984228,0.39025,5.16669,7.434,-87.88411,-47.3873,-1.75077,22.59609,88.43366,0
bike_v1,1763573984248,0.77333,7.29513,8.837,-94.94062,-34.76268,3.00504,22.59609,88.43366,0
bike_v1,1763573984267,1.52271,5.63116,8.13789,-97.22811,-39.43314,5.00122,22.59609,88.43366,0
bike_v1,1763573984288,0.4549,6.88333,7.37654,-107.20728,-34.22212,10.59828,22.59609,88.43366,0
bike_v1,1763573984310,1.08936,6.2345,6.72292,-94.69537,-42.96487,3.52886,22.59609,88.43366,0
bike_v1,1763573984327,-1.25456,6.00705,7.67821,-102.2276,-42.47131,9.20404,22.59609,88.43366,0
bike_v1,1763573984347,1.76213,6.86418,8.03734,-76.16196,-37.67218,-9.2797,22.59609,88.43366,0
bike_v1,1763573984367,0.49081,6.55054,7.07247,-107.24577,-39.8356,12.36606,22.59609,88.43366,0
bike_v1,1763573984387,-0.84036,6.14352,7.73806,-95.30691,-42.7373,3.96981,22.59609,88.43366,0
bike_v1,1763573984410,2.07098,6.71813,6.8953,-80.80367,-38.28384,-6.19812,22.59609,88.43366,0
bike_v1,1763573984428,0.89543,5.74848,7.38132,-111.23661,-43.01872,16.71749,22.59609,88.43366,0
bike_v1,1763573984447,0.24421,6.67025,8.70292,-100.39413,-37.7083,6.91678,22.59609,88.43366,0
bike_v1,1763573984467,2.1476,6.55532,7.53455,-92.45713,-37.45702,1.60733,22.59609,88.43366,0
bike_v1,1763573984487,-0.16999,5.25048,6.29196,-111.72899,-39.91956,15.90932,22.59609,88.43366,0
bike_v1,1763573984509,1.07739,6.51941,8.22648,-87.77515,-39.83386,-1.54757,22.59609,88.43366,0
bike_v1,1763573984527,1.32878,6.52899,7.16585,-101.06346,-38.15959,7.46135,22.59609,88.43366,0
bike_v1,1763573984547,0.00239,5.40371,6.07888,-104.08939,-41.8557,10.50519,22.59609,88.43366,0
bike_v1,1763573984567,0.91698,6.18183,8.76996,-90.03105,-41.63493,0.02257,22.59609,88.43366,0
bike_v1,1763573986424,1.42694,5.782,8.94713,-107.47742,-31.17136,9.81479,22.59609,88.43366,0
bike_v1,1763573986444,0.91698,7.19458,7.50582,-105.55891,-32.545,9.06157,22.59609,88.43366,0
bike_v1,1763573986464,0.249,8.49702,9.28232,-99.08161,-43.5751,6.96526,22.59609,88.43366,0
bike_v1,1763573986485,0.25857,9.79228,6.76362,-92.07254,-42.46068,1.53658,22.59609,88.43366,0
bike_v1,1763573986504,1.94649,4.56574,6.58645,-92.26525,-55.34724,2.18936,22.59609,88.43366,0
bike_v1,1763573986524,0.99359,6.00705,7.81946,-116.09454,-33.61517,16.46393,22.59609,88.43366,0
bike_v1,1763573986544,1.76453,5.53061,12.84489,-100.9839,-37.31067,7.24158,22.59609,88.43366,0
bike_v1,1763573986564,0.7829,6.75883,5.02782,-108.7056,-23.10127,7.82187,22.59609,88.43366,0
bike_v1,1763573986584,0.7015,5.54018,7.02938,-99.47609,-53.0256,8.85069,22.59609,88.43366,0
bike_v1,1763573986604,1.98,4.79559,8.19296,-98.50605,-38.10538,5.699,22.59609,88.43366,0
bike_v1,1763573987044,0.826,6.35661,6.46913,-99.47164,-37.0517,6.18148,22.59609,88.43366,0
bike_v1,1763573987063,-0.46208,6.29196,7.81228,-99.33472,-44.26575,7.27634,22.59609,88.43366,0
bike_v1,1763573987083,-0.01676,5.81073,8.53772,-85.01389,-38.79889,-3.38499,22.59609,88.43366,0
bike_v1,1763573987103,-0.03831,5.56412,7.60159,-89.81179,-34.23894,-0.11247,22.59609,88.43366,0
bike_v1,1763573987123,-0.73981,6.20577,5.72932,-89.54305,-36.20261,-0.28873,22.59609,88.43366,0
bike_v1,1763573987143,1.51553,5.2864,8.89446,-81.11201,-47.04984,-7.3577,22.59609,88.43366,0
bike_v1,1763573987163,0.98881,5.99748,6.9791,-107.66353,-30.36615,9.66978,22.59609,88.43366,0
bike_v1,1763573987183,1.36469,6.1507,7.56328,-101.29013,-40.39282,8.06405,22.59609,88.43366,0
bike_v1,1763573987204,-0.05028,6.28478,7.16585,-104.81525,-38.67058,10.22822,22.59609,88.43366,0
bike_v1,1763573987223,-0.13168,6.16986,7.65905,-89.44167,-41.25157,-0.402,22.59609,88.43366,0
bike_v1,1763573987244,1.21147,6.69898,7.44357,-88.54765,-38.84955,-0.98498,22.59609,88.43366,0
bike_v1,1763573987263,1.20428,6.49547,6.94318,-102.52416,-41.61404,9.24403,22.59609,88.43366,0
bike_v1,1763573987283,0.3304,6.34224,7.45794,-102.98619,-42.66846,9.83996,22.59609,88.43366,0
bike_v1,1763573987303,-0.2059,6.50983,7.85538,-93.59721,-40.35016,2.53665,22.59609,88.43366,0
bike_v1,1763573987323,0.4525,6.71813,7.49385,-87.83077,-39.63924,-1.50147,22.59609,88.43366,0
bike_v1,1763573987344,0.51954,6.21774,7.88411,-94.72308,-41.82394,3.45552,22.59609,88.43366,0
bike_v1,1763573987363,-0.40223,6.07888,6.80911,-95.63654,-38.20047,3.77019,22.59609,88.43366,0
bike_v1,1763573987383,0.55067,5.62159,7.31668,-85.36598,-41.70752,-3.38063,22.59609,88.43366,0
bike_v1,1763573987403,0.35195,5.65271,8.00621,-96.55479,-37.45781,4.30407,22.59609,88.43366,0
bike_v1,1763573987423,1.22344,6.70616,6.76362,-94.09039,-35.1976,2.51706,22.59609,88.43366,0
bike_v1,1763573987444,0.92177,6.79714,7.69975,-103.03302,-44.29448,10.25308,22.59609,88.43366,0
bike_v1,1763573987462,-0.08619,6.18422,7.32865,-99.40026,-41.23506,6.82661,22.59609,88.43366,0
bike_v1,1763573987482,-0.26576,6.36858,7.62314,-89.0387,-40.15712,-0.67382,22.59609,88.43366,0
bike_v1,1763573987503,-0.51715,5.67186,7.74524,-87.13234,-39.85918,-1.99663,22.59609,88.43366,0
bike_v1,1763573987523,1.05345,6.33266,7.29513,-83.96874,-36.15469,-3.81995,22.59609,88.43366,0
bike_v1,1763573987545,0.93853,5.53779,7.93199,-101.4229,-40.66769,8.21696,22.59609,88.43366,0
bike_v1,1763573987563,0.21787,8.06128,5.91368,-100.99408,-34.73444,6.74796,22.59609,88.43366,0
bike_v1,1763573987582,0.96726,5.46357,8.62152,-92.24931,-53.71805,2.10994,22.59609,88.43366,0
bike_v1,1763573987603,-1.33357,6.0286,7.61117,-101.24332,-32.20117,6.40131,22.59609,88.43366,0
bike_v1,1763573987623,0.54109,7.12993,6.94797,-75.32939,-37.96092,-9.93805,22.59609,88.43366,0
bike_v1,1763573988002,-1.14682,6.84502,7.66384,-72.72402,-43.80519,-13.62366,22.59609,88.43366,0
bike_v1,1763573988022,-1.49398,8.26957,10.50815,-78.39846,-41.45491,-8.51063,22.59609,88.43366,0
bike_v1,1763573988042,-1.901,8.32224,5.08289,-77.95538,-37.92331,-8.09172,22.59609,88.43366,0
bike_v1,1763573988062,0.85234,5.20499,10.48182,-70.17934,-56.89255,-20.50575,22.59609,88.43366,0
bike_v1,1763573988082,-1.9824,7.35978,5.42766,-100.01194,-26.33266,4.64882,22.59609,88.43366,0
bike_v1,1763573988102,0.35913,6.01902,11.10431,-68.85027,-51.86362,-20.06424,22.59609,88.43366,0
bike_v1,1763573988122,-1.70946,7.97509,3.98156,-93.72566,-28.4471,1.85239,22.59609,88.43366,0
bike_v1,1763573988142,-0.16999,7.18739,10.74039,-69.29741,-61.4839,-23.236,22.59609,88.43366,0
bike_v1,1763573988162,-2.19069,9.51456,5.284,-88.46271,-33.78685,-0.90675,22.59609,88.43366,0
bike_v1,1763573988182,-0.79248,8.9998,7.33344,-69.10517,-58.98584,-22.5184,22.59609,88.43366,0
bike_v1,1763573988202,-2.11887,9.26077,6.50983,-83.05892,-50.66235,-6.16768,22.59609,88.43366,0
bike_v1,1763573988221,-0.75896,9.13148,8.24084,-71.38485,-53.52649,-18.02941,22.59609,88.43366,0
bike_v1,1763573988242,-1.55384,10.47942,7.83383,-83.71989,-47.81448,-5.26196,22.59609,88.43366,0
bike_v1,1763573988262,-0.98881,8.14986,6.15549,-77.97955,-52.68871,-11.21898,22.59609,88.43366,0
bike_v1,1763573988281,-0.38068,8.5066,7.65426,-80.15462,-52.58507,-9.12591,22.59609,88.43366,0
bike_v1,1763573988301,0.3711,6.57687,7.08205,-86.60423,-47.98383,-2.84721,22.59609,88.43366,0
bike_v1,1763573988321,0.05267,6.33266,6.4428,-94.00494,-42.84271,2.99957,22.59609,88.43366,0
bike_v1,1763573988341,1.12049,4.61602,7.99185,-90.603,-44.50513,0.46841,22.59609,88.43366,0
bike_v1,1763573988361,0.65841,6.8953,8.34379,-105.00784,-29.76942,7.98106,22.59609,88.43366,0
bike_v1,1763573988381,0.69911,5.68144,7.81946,-96.51908,-39.483,4.51184,22.59609,88.43366,0
bike_v1,1763573988401,0.69192,6.20338,5.71257,-98.10107,-35.8929,5.109,22.59609,88.43366,0
bike_v1,1763573988421,0.34237,5.1595,7.1036,-98.33292,-47.15068,6.90621,22.59609,88.43366,0
bike_v1,1763573988441,0.98402,5.26246,3.96001,-94.38789,-35.96016,2.75934,22.59609,88.43366,0
bike_v1,1763573988462,0.95768,3.9241,9.92636,-104.96411,-52.21048,13.95471,22.59609,88.43366,0
bike_v1,1763573988481,0.56024,4.35984,4.11324,-104.3895,-21.47932,5.51076,22.59609,88.43366,0
bike_v1,1763573988501,1.29526,5.29597,8.68377,-99.489,-46.40416,7.75624,22.59609,88.43366,0
bike_v1,1763573988521,1.16837,5.533,6.15549,-105.25906,-31.09827,8.48364,22.59609,88.43366,0
bike_v1,1763573988541,1.02951,6.0717,9.31584,-104.53664,-41.44788,10.74743,22.59609,88.43366,0
bike_v1,1763573988562,0.14605,7.48427,6.11479,-100.83928,-32.93584,6.30625,22.59609,88.43366,0
bike_v1,1763573988582,-0.30167,6.72292,7.07008,-91.54453,-50.74252,1.3682,22.59609,88.43366,0
bike_v1,1763573988601,-0.29928,9.65582,9.60314,-86.78765,-43.5322,-2.44324,22.59609,88.43366,0
bike_v1,1763573988621,-2.33435,8.43477,5.77242,-87.73563,-45.14279,-1.78501,22.59609,88.43366,0
bike_v1,1763573988981,0.39265,7.72609,7.49385,-100.72858,-45.28175,8.57947,22.59609,88.43366,0
bike_v1,1763573989000,1.58496,8.78672,11.62385,-93.74397,-45.83495,2.99934,22.59609,88.43366,0
bike_v1,1763573989020,0.22266,8.61913,5.72214,-101.90407,-36.83289,7.76464,22.59609,88.43366,0
bike_v1,1763573989041,0.0838,2.66475,1.32878,-92.26258,-56.40028,2.22838,22.59609,88.43366,0
bike_v1,1763573989060,-3.0143,5.20739,5.59764,-93.2549,-63.45133,3.60847,22.59609,88.43366,0
bike_v1,1763573989080,-1.5706,11.01572,11.61427,-54.25401,-39.32007,-28.30222,22.59609,88.43366,0
bike_v1,1763573989100,-2.87544,7.57286,8.43477,-79.89782,-43.22577,-7.70138,22.59609,88.43366,0
bike_v1,1763573989120,-2.32238,5.58567,4.94642,-64.9938,-40.35762,-18.82438,22.59609,88.43366,0
bike_v1,1763573989139,1.91536,9.05727,12.10748,-61.13646,-45.62839,-25.15035,22.59609,88.43366,0
bike_v1,1763573989160,1.67355,7.66145,4.55138,-103.85044,-36.46008,8.9895,22.59609,88.43366,0
bike_v1,1763573989180,-0.66798,5.59285,9.67976,-109.29416,-57.66826,20.18854,22.59609,88.43366,0
bike_v1,1763573989201,-3.57694,10.52491,7.61835,-82.49376,-29.95992,-3.94762,22.59609,88.43366,0
bike_v1,1763573989220,-1.72622,5.79397,2.75094,-63.90579,-51.35233,-25.15081,22.59609,88.43366,0
bike_v1,1763573989240,-1.05345,7.62553,6.03578,-62.13354,-60.72807,-32.10836,22.59609,88.43366,0
bike_v1,1763573989259,-0.63686,7.9272,5.41808,-79.05988,-51.21854,-9.90033,22.59609,88.43366,0
bike_v1,1763573989279,1.02472,2.77488,7.87692,-83.10817,-55.46484,-6.70396,22.59609,88.43366,0
bike_v1,1763573989299,-2.99275,8.58321,7.89368,-111.05264,-19.25615,7.41205,22.59609,88.43366,0
bike_v1,1763573989319,-0.79009,3.95522,6.42125,-65.45927,-45.47533,-20.76335,22.59609,88.43366,0
bike_v1,1763573989339,-2.24816,10.85292,10.54406,-77.42255,-31.43944,-7.01456,22.59609,88.43366,0
bike_v1,1763573989360,-2.39899,3.8834,3.9241,-75.08591,-45.19028,-12.0361,22.59609,88.43366,0
bike_v1,1763573989382,0.35434,9.165,12.36605,-51.95515,-40.17581,-31.43946,22.59609,88.43366,0
bike_v1,1763573989400,-1.77889,6.67503,9.46667,-92.57245,-36.53247,1.64133,22.59609,88.43366,0
bike_v1,1763573989419,-4.58968,11.63821,9.99819,-72.95916,-34.72119,-10.6424,22.59609,88.43366,0
bike_v1,1763573989439,1.29766,0.4549,4.61123,-62.12104,-46.61143,-24.65757,22.59609,88.43366,0
bike_v1,1763573989459,-5.96396,8.6287,5.37738,-160.9585,-5.42462,15.71725,22.59609,88.43366,0
bike_v1,1763573989479,0.52672,2.76291,6.44998,-44.4553,-47.05739,-47.96073,22.59609,88.43366,0
bike_v1,1763573989499,-2.17872,10.1562,9.39485,-101.41638,-23.11948,4.66858,22.59609,88.43366,0
bike_v1,1763573989519,-2.67672,4.26647,4.92966,-74.31012,-46.48132,-13.05645,22.59609,88.43366,0
bike_v1,1763573989539,0.72544,4.10845,3.66073,-52.58363,-37.25591,-28.50117,22.59609,88.43366,0
bike_v1,1763573989559,-1.79086,11.26232,7.60398,-103.21077,-47.74948,11.20901,22.59609,88.43366,0
bike_v1,1763573989579,-2.09014,5.43963,6.74686,-76.51228,-55.25317,-13.25259,22.59609,88.43366,0
bike_v1,1763573989599,-0.91459,3.74214,0.8691,-65.40312,-37.60117,-17.21268,22.59609,88.43366,0
bike_v1,1763573989619,-2.15478,12.33493,7.5561,-56.93584,-71.36845,-46.46092,22.59609,88.43366,0
bike_v1,1763573989639,-0.87149,4.37181,9.84975,-74.52808,-57.50291,-15.91662,22.59609,88.43366,0
bike_v1,1763573990099,-1.50835,4.06535,-0.53391,-109.69675,-21.2001,7.58938,22.59609,88.43366,0
bike_v1,1763573990118,0.73263,8.1738,8.69335,-44.17935,-68.51627,-70.50766,22.59609,88.43366,0
bike_v1,1763573990138,-0.64883,10.30225,5.88974,-96.37227,-43.13457,4.81718,22.59609,88.43366,0
bike_v1,1763573990159,0.63925,10.67814,8.61434,-84.02799,-60.09453,-6.2865,22.59609,88.43366,0
bike_v1,1763573990178,3.99353,9.42597,16.29254,-94.75427,-51.02905,4.24402,22.59609,88.43366,0
bike_v1,1763573990199,2.0638,9.95988,10.69969,-115.1517,-29.33212,13.77246,22.59609,88.43366,0
bike_v1,1763573990218,-0.07901,8.64546,7.25922,-104.43018,-42.42761,10.91738,22.59609,88.43366,0
bike_v1,1763573990238,-0.35434,7.16106,6.37815,-89.28518,-49.9796,-0.62358,22.59609,88.43366,0
bike_v1,1763573990259,0.91937,6.52659,-0.02873,-86.23069,-48.26559,-3.17983,22.59609,88.43366,0
bike_v1,1763573990280,-0.35674,4.03902,4.21858,-137.0972,-81.97791,88.21009,22.59609,88.43366,0
bike_v1,1763573990298,0.16281,7.90087,-0.39983,-83.6814,-43.65231,-4.8336,22.59609,88.43366,0
bike_v1,1763573990318,2.62405,6.54335,11.98059,-104.30739,-86.87244,22.15544,22.59609,88.43366,0
bike_v1,1763573990338,-0.22027,10.73321,12.59589,-113.74715,-28.08064,12.35411,22.59609,88.43366,0
bike_v1,1763573990358,-0.27294,9.13148,13.42908,-88.58054,-40.43063,-1.00184,22.59609,88.43366,0
bike_v1,1763573990378,-0.88107,12.64139,-2.65278,-88.05064,-34.20937,-1.16435,22.59609,88.43366,0
bike_v1,1763573990398,4.24013,8.31267,13.32613,-76.66836,-77.53139,-18.37286,22.59609,88.43366,0
bike_v1,1763573990417,0.72305,6.22492,1.403,-119.87283,-30.72821,17.65012,22.59609,88.43366,0
bike_v1,1763573990438,2.76051,6.70137,14.79856,-109.78996,-75.77224,27.26469,22.59609,88.43366,0
bike_v1,1763573990458,-0.31603,8.10437,6.48589,-113.76532,-23.99673,10.56648,22.59609,88.43366,0
bike_v1,1763573990478,2.17154,4.97276,-2.30322,-86.88721,-51.29674,-2.78961,22.59609,88.43366,0
bike_v1,1763573990497,1.10373,1.61369,-1.56341,-126.98073,-57.52042,43.31442,22.59609,88.43366,0
bike_v1,1763573990518,1.03908,2.18351,5.97832,-131.26707,-40.13776,35.22104,22.59609,88.43366,0
bike_v1,1763573990538,0.39744,5.35583,4.14197,-116.48285,-19.79092,9.86,22.59609,88.43366,0
bike_v1,1763573990557,2.21464,5.95438,5.65032,-95.99907,-52.15604,5.48097,22.59609,88.43366,0
bike_v1,1763573990577,-0.84755,6.4428,0.46926,-115.70847,-44.45461,21.40265,22.59609,88.43366,0
bike_v1,1763573990597,1.59933,5.87777,8.40844,-53.15649,-81.44866,-61.02792,22.59609,88.43366,0
bike_v1,1763573990618,2.49715,5.6168,2.09732,-107.34627,-34.47816,10.7693,22.59609,88.43366,0
bike_v1,1763573990638,1.62087,4.97994,13.27106,-129.85609,-59.86092,49.9736,22.59609,88.43366,0
bike_v1,1763573990658,-0.73023,6.82108,-5.52821,-108.82178,-20.42937,6.96339,22.59609,88.43366,0
bike_v1,1763573991056,-1.09415,7.37175,2.1045,-126.11295,-21.33543,15.56545,22.59609,88.43366,0
bike_v1,1763573991076,3.47878,3.06697,16.18241,-69.15987,-72.16383,-27.47033,22.59609,88.43366,0
bike_v1,1763573991097,-0.99359,4.49631,-7.34062,-139.13242,-10.49739,12.13238,22.59609,88.43366,0
bike_v1,1763573991117,2.93769,4.37421,4.4173,-76.14659,-31.25731,-7.70844,22.59609,88.43366,0
bike_v1,1763573991136,-1.95367,4.0055,1.39582,-130.40181,-39.50732,33.62552,22.59609,88.43366,0
bike_v1,1763573991156,5.81791,6.73489,7.33105,-47.32256,-59.05971,-54.45568,22.59609,88.43366,0
bike_v1,1763573991176,0.09337,7.44118,12.36605,-137.08182,-35.73918,38.43548,22.59609,88.43366,0
bike_v1,1763573991203,1.68552,5.80594,4.36224,-90.79861,-31.03639,0.43262,22.59609,88.43366,0
bike_v1,1763573991216,1.09176,5.9065,13.06995,-112.44183,-51.1494,21.12596,22.59609,88.43366,0
bike_v1,1763573991236,-0.99359,7.94636,3.95043,-101.14188,-24.24422,4.77493,22.59609,88.43366,0
bike_v1,1763573991256,0.77333,3.26569,7.63032,-77.34169,-62.85938,-14.11792,22.59609,88.43366,0
bike_v1,1763573991276,-0.29688,5.43963,10.36211,-104.08523,-23.06467,5.78712,22.59609,88.43366,0
bike_v1,1763573991302,0.49321,7.82425,10.42675,-86.60793,-27.68773,-1.64111,22.59609,88.43366,0
bike_v1,1763573991316,-1.50116,7.84101,3.62961,-94.20279,-36.8539,2.70818,22.59609,88.43366,0
bike_v1,1763573991337,1.4461,5.43484,7.1012,-70.48313,-63.39236,-22.46942,22.59609,88.43366,0
bike_v1,1763573991356,2.26731,5.56173,-0.33998,-107.33865,-36.86801,11.5104,22.59609,88.43366,0
bike_v1,1763573991376,3.69665,1.8579,9.7851,-140.31746,-67.59758,81.47219,22.59609,88.43366,0
bike_v1,1763573991398,-1.24977,5.08289,7.8027,-154.04977,-10.07173,20.69572,22.59609,88.43366,0
bike_v1,1763573991416,0.82839,-1.19471,8.58561,-74.47169,-32.75026,-9.09988,22.59609,88.43366,0
bike_v1,1763573991436,-0.27773,2.66235,9.31105,124.94878,7.8858,5.5112,22.59609,88.43366,0
bike_v1,1763573991456,3.26809,6.69658,7.58722,-83.88616,-15.95033,-1.7085,22.59609,88.43366,0
bike_v1,1763573991476,-0.9481,7.90087,6.47392,-120.84059,-39.02867,23.30325,22.59609,88.43366,0
bike_v1,1763573991499,2.82755,5.14993,15.6102,-80.60785,-50.37068,-8.33172,22.59609,88.43366,0
bike_v1,1763573991516,0.59376,4.24013,-3.20105,-119.72073,-17.98476,10.26695,22.59609,88.43366,0
bike_v1,1763573991536,3.39019,2.09014,13.89834,-101.32241,-52.48228,10.50835,22.59609,88.43366,0
bike_v1,1763573991555,-0.97923,6.84023,10.63265,-148.76863,-8.31232,13.70832,22.59609,88.43366,0
bike_v1,1763573991577,-0.20351,3.32315,5.54976,-80.84328,-32.64413,-5.26189,22.59609,88.43366,0
bike_v1,1763573991601,2.88501,3.19147,15.02122,-86.11144,-30.89587,-2.10007,22.59609,88.43366,0
bike_v1,1763573991618,2.07817,11.33894,15.30374,-132.69066,-11.78571,10.87198,22.59609,88.43366,0
bike_v1,1763573991636,1.04387,5.80115,5.05177,-102.03083,-36.28566,7.73316,22.59609,88.43366,0
bike_v1,1763573991655,1.35512,5.18584,10.49857,-103.57366,-48.35593,11.675,22.59609,88.43366,0
bike_v1,1763573991676,-0.09577,5.79397,10.13466,-105.73767,-26.09988,7.35487,22.59609,88.43366,0
bike_v1,1763573992175,0.79009,5.6982,12.78025,-113.11901,-61.0237,26.05276,22.59609,88.43366,0
bike_v1,1763573992195,-0.49081,7.49146,10.8194,-98.38856,-23.98956,3.53757,22.59609,88.43366,0
bike_v1,1763573992214,2.15478,2.52349,8.65025,-85.71574,-34.67155,-2.59739,22.59609,88.43366,0
bike_v1,1763573992235,2.09493,8.26718,6.92643,-131.50865,-15.80544,13.98773,22.59609,88.43366,0
bike_v1,1763573992255,0.44532,3.81636,2.52588,-109.0247,-48.80417,16.82816,22.59609,88.43366,0
bike_v1,1763573992275,3.81396,5.43484,8.37013,-100.10634,-56.09636,9.99869,22.59609,88.43366,0
bike_v1,1763573992294,2.53307,3.09331,11.93988,-128.69997,-30.57732,24.49703,22.59609,88.43366,0
bike_v1,1763573992316,1.33118,7.52737,3.67271,-130.1057,-14.22122,11.9778,22.59609,88.43366,0
bike_v1,1763573992334,-0.21069,3.61046,10.26394,-107.66166,-62.57187,19.92311,22.59609,88.43366,0
bike_v1,1763573992354,-0.01437,7.57765,7.96072,-86.52692,-19.37611,-1.17596,22.59609,88.43366,0
bike_v1,1763573992375,0.51954,3.73974,10.98699,-89.86409,-43.58771,-0.10339,22.59609,88.43366,0
bike_v1,1763573992395,0.98402,5.77721,6.34224,-98.20412,-18.778,2.70733,22.59609,88.43366,0
bike_v1,1763573992415,2.45885,4.55856,3.51708,-101.86115,-41.99164,8.81929,22.59609,88.43366,0
bike_v1,1763573992435,0.88585,6.32309,7.13712,-126.79996,-46.72935,34.95798,22.59609,88.43366,0
bike_v1,1763573992454,0.35434,5.67665,9.43076,-99.71624,-41.32187,7.07533,22.59609,88.43366,0
bike_v1,1763573992474,-0.09577,5.18824,11.29584,-93.96717,-31.02711,2.15176,22.59609,88.43366,0
bike_v1,1763573992494,0.90261,7.49625,2.41336,-88.87194,-24.66876,-0.48575,22.59609,88.43366,0
bike_v1,1763573992515,2.66953,3.85466,10.90559,-106.10308,-71.03104,20.5062,22.59609,88.43366,0
bike_v1,1763573992534,-0.48123,6.23211,9.96227,-125.97601,-18.94844,13.75473,22.59609,88.43366,0
bike_v1,1763573992554,0.56743,6.70616,12.06678,-85.06038,-31.99889,-2.76556,22.59609,88.43366,0
bike_v1,1763573992574,-0.3735,9.78271,0.27533,-95.29736,-29.03644,2.69228,22.59609,88.43366,0
bike_v1,1763573992594,2.21224,4.92248,10.32619,-58.44508,-87.28444,-53.60312,22.59609,88.43366,0
bike_v1,1763573992617,-2.07577,7.80031,1.49638,-115.82006,-24.99124,12.09203,22.59609,88.43366,0
bike_v1,1763573992634,1.18034,3.15077,15.2774,-52.95967,-71.83787,-54.21305,22.59609,88.43366,0
bike_v1,1763573992654,-1.24977,6.95516,6.5242,-110.81772,-11.61946,4.41793,22.59609,88.43366,0
bike_v1,1763573992674,1.55144,6.51462,4.24731,-76.82238,-46.3158,-10.84419,22.59609,88.43366,0
bike_v1,1763573993034,-0.63686,7.39808,9.65821,-97.96854,-23.32811,3.26549,22.59609,88.43366,0
bike_v1,1763573993053,1.84114,7.52976,9.4978,-84.23871,-37.39174,-3.77259,22.59609,88.43366,0
bike_v1,1763573993073,0.2873,5.72932,4.86981,-106.14636,-37.89369,10.97068,22.59609,88.43366,0
bike_v1,1763573993093,1.10612,6.4404,5.05895,-93.89524,-49.58704,3.37637,22.59609,88.43366,0
bike_v1,1763573993115,-0.52433,5.81073,5.52342,-103.54413,-51.19867,12.33343,22.59609,88.43366,0
bike_v1,1763573993134,1.70707,6.58405,9.93833,-83.32322,-46.3237,-5.42275,22.59609,88.43366,0
bike_v1,1763573993153,-0.83318,5.85382,12.02129,-106.38762,-33.14169,9.74635,22.59609,88.43366,0
bike_v1,1763573993177,2.36068,6.41646,8.56645,-81.30004,-25.90999,-3.96477,22.59609,88.43366,0
bike_v1,1763573993196,1.35272,5.18105,5.21218,-113.26565,-35.83324,15.40677,22.59609,88.43366,0
bike_v1,1763573993215,2.35829,5.90889,3.99832,-108.33787,-43.89499,14.54907,22.59609,88.43366,0
bike_v1,1763573993233,-0.09816,5.00149,10.02692,-120.49404,-51.84703,30.53297,22.59609,88.43366,0
bike_v1,1763573993253,0.38068,7.44836,4.48913,-88.78787,-26.5092,-0.5609,22.59609,88.43366,0
bike_v1,1763573993273,-0.05507,4.46279,7.3071,-94.7099,-58.83179,4.84709,22.59609,88.43366,0
bike_v1,1763573993293,1.68073,6.55293,8.45871,-89.21253,-31.41365,-0.43178,22.59609,88.43366,0
bike_v1,1763573993315,2.47321,3.15077,13.50569,-106.79727,-37.22906,11.23818,22.59609,88.43366,0
bike_v1,1763573993333,-0.19872,8.66222,7.98945,-128.7619,-12.92426,10.37723,22.59609,88.43366,0
bike_v1,1763573993353,1.14203,4.67588,3.4285,-88.2748,-47.30481,-1.4248,22.59609,88.43366,0
bike_v1,1763573993373,2.63362,5.3271,7.39569,-109.40447,-52.30174,18.42294,22.59609,88.43366,0
bike_v1,1763573993393,-0.12929,5.21218,8.97826,-119.84771,-34.15916,19.60093,22.59609,88.43366,0
bike_v1,1763573993415,0.60813,7.63511,11.8082,-88.43176,-30.13402,-0.825,22.59609,88.43366,0
bike_v1,1763573993433,0.32561,8.21211,-4.27844,-95.12803,-32.85187,2.94815,22.59609,88.43366,0
bike_v1,1763573993453,0.00718,5.4899,4.64475,-93.98884,-62.41301,4.35213,22.59609,88.43366,0
bike_v1,1763573993473,-1.23301,6.28717,10.87925,-90.10201,-49.76697,0.0886,22.59609,88.43366,0
bike_v1,1763573993493,2.38462,6.50744,10.55125,-77.78367,-29.86568,-6.4661,22.59609,88.43366,0
bike_v1,1763573993517,2.03986,6.19619,5.83228,-112.3139,-31.03001,12.73513,22.59609,88.43366,0
bike_v1,1763573993533,0.96726,5.9855,5.62637,-113.15247,-45.08095,19.27747,22.59609,88.43366,0
bike_v1,1763573993553,-0.50996,6.6463,5.69581,-101.88359,-46.35489,9.75465,22.59609,88.43366,0
bike_v1,1763573993572,-0.40462,7.31189,4.46758,-84.07407,-49.29076,-5.11624,22.59609,88.43366,0
bike_v1,1763573993592,2.00155,5.14275,8.2983,-84.94212,-58.47076,-5.17505,22.59609,88.43366,0
bike_v1,1763573993613,1.57538,5.18824,10.45787,-113.58115,-31.06717,13.56074,22.59609,88.43366,0
bike_v1,1763573993632,2.68629,6.63912,6.37576,-108.15079,-26.13133,8.56668,22.59609,88.43366,0
bike_v1,1763573993652,-0.71826,7.12036,8.31985,-117.53729,-43.81924,22.84712,22.59609,88.43366,0
bike_v1,1763573993672,1.51314,4.05578,11.6023,-83.04578,-40.45276,-4.93416,22.59609,88.43366,0
bike_v1,1763573993693,-0.69192,7.87692,-3.82833,-111.23918,-19.11792,7.4304,22.59609,88.43366,0
bike_v1,1763573994092,-0.38068,4.18028,10.42196,-84.33172,-44.99608,-4.46605,22.59609,88.43366,0
bike_v1,1763573994113,-2.44448,5.93523,6.45956,-84.52943,-21.84265,-2.09189,22.59609,88.43366,0
bike_v1,1763573994133,3.53384,5.56891,10.90559,-62.99607,-40.67424,-20.72807,22.59609,88.43366,0
bike_v1,1763573994153,0.75178,6.18901,3.60806,-124.72054,-25.90956,17.95437,22.59609,88.43366,0
bike_v1,1763573994173,0.71108,5.10683,13.28782,-101.23974,-59.22624,11.76981,22.59609,88.43366,0
bike_v1,1763573994193,-1.75016,6.25605,7.89847,-98.30068,-20.99556,3.06318,22.59609,88.43366,0
bike_v1,1763573994212,-0.32801,7.49146,6.78277,-71.67142,-37.71484,-12.49386,22.59609,88.43366,0
bike_v1,1763573994235,0.76136,5.06374,6.03578,-86.68574,-47.80898,-2.76859,22.59609,88.43366,0
bike_v1,1763573994252,1.00796,6.75644,8.92558,-100.24622,-39.77255,7.18934,22.59609,88.43366,0
bike_v1,1763573994273,0.19393,5.40611,11.55681,-99.8913,-36.95023,6.44307,22.59609,88.43366,0
bike_v1,1763573994292,0.46448,7.61835,3.55539,-92.19638,-25.06641,0.96137,22.59609,88.43366,0
bike_v1,1763573994312,0.22027,2.61447,7.86016,-96.55272,-64.79583,7.44295,22.59609,88.43366,0
bike_v1,1763573994337,-0.83079,6.85699,9.59596,-94.98805,-18.39156,1.60519,22.59609,88.43366,0
bike_v1,1763573994353,3.05979,7.91284,11.15219,-82.05334,-35.44736,-4.94815,22.59609,88.43366,0
bike_v1,1763573994373,3.57454,7.41245,5.23851,-114.04837,-34.3817,15.34251,22.59609,88.43366,0
bike_v1,1763573994392,1.30245,4.45322,1.84593,-124.75224,-49.45065,34.30799,22.59609,88.43366,0
bike_v1,1763573994412,-0.26815,5.33668,6.04536,-119.15852,-63.10083,35.20592,22.59609,88.43366,0
bike_v1,1763573994434,2.48997,3.60088,18.15284,-86.49025,-41.40924,-2.53977,22.59609,88.43366,0
bike_v1,1763573994452,0.21069,9.19613,7.58483,-125.08707,-11.11833,7.81035,22.59609,88.43366,0
bike_v1,1763573994472,3.15316,6.43083,5.74848,-91.8056,-50.47385,1.59114,22.59609,88.43366,0
bike_v1,1763573994492,0.18914,4.55617,10.32859,-122.8932,-44.44566,28.74571,22.59609,88.43366,0
bike_v1,1763573994513,-0.68474,5.77721,9.74919,-92.524,-23.79977,1.04911,22.59609,88.43366,0
bike_v1,1763573994538,2.24337,7.28316,-2.02549,-82.51737,-30.58849,-4.01761,22.59609,88.43366,0
bike_v1,1763573994552,0.33279,4.03423,12.05241,-125.38819,-67.46183,47.92171,22.59609,88.43366,0
bike_v1,1763573994572,-0.95289,7.67581,10.95826,-94.88663,-18.50005,1.58166,22.59609,88.43366,0
bike_v1,1763573994591,4.04141,3.67031,5.35822,-81.89751,-34.90833,-4.96974,22.59609,88.43366,0
bike_v1,1763573994611,-0.36871,8.82982,-1.06781,-142.2451,-28.67307,37.02524,22.59609,88.43366,0
bike_v1,1763573994634,-1.18752,3.13162,6.52181,-77.02998,-82.70924,-19.04935,22.59609,88.43366,0
bike_v1,1763573994652,1.82678,5.8203,5.36301,-67.79915,-25.28647,-10.31965,22.59609,88.43366,0
bike_v1,1763573994671,1.91776,5.89213,17.96848,-112.34048,-45.77168,18.81013,22.59609,88.43366,0
bike_v1,1763573994691,-1.55863,6.82347,8.18578,-108.64117,-18.05922,6.09205,22.59609,88.43366,0
bike_v1,1763573994712,1.86748,5.24809,5.30795,-74.66521,-39.31287,-10.78045,22.59609,88.43366,0
bike_v1,1763573995070,-0.84036,7.62793,10.28788,-89.72476,-39.84171,-0.1914,22.59609,88.43366,0
bike_v1,1763573995090,-0.85473,9.44991,-0.40941,-82.70201,-36.4639,-4.66983,22.59609,88.43366,0
bike_v1,1763573995111,1.86987,5.77242,9.43555,-52.61098,-84.27299,-64.40598,22.59609,88.43366,0
bike_v1,1763573995131,-0.44053,10.9008,8.7532,-109.89828,-30.96811,11.20925,22.59609,88.43366,0
bike_v1,1763573995150,-0.92895,8.58561,-3.553,-86.77924,-51.20061,-2.88116,22.59609,88.43366,0
bike_v1,1763573995170,1.9417,6.76841,6.91924,-77.63578,-66.84155,-14.65231,22.59609,88.43366,0
bike_v1,1763573995190,0.15562,6.61278,4.55377,-109.90797,-43.28383,15.67533,22.59609,88.43366,0
bike_v1,1763573995210,0.19872,8.14986,10.54646,-92.02227,-55.43185,1.9573,22.59609,88.43366,0
bike_v1,1763573995230,0.68474,8.40604,17.17122,-91.6405,-37.69043,1.07945,22.59609,88.43366,0
bike_v1,1763573995252,0.65122,8.87531,10.55364,-95.00684,-26.06575,2.28359,22.59609,88.43366,0
bike_v1,1763573995271,0.13886,7.78355,8.3821,-95.04357,-40.00923,3.53102,22.59609,88.43366,0
bike_v1,1763573995290,-1.35512,10.01495,5.99508,-91.26812,-42.87561,0.94911,22.59609,88.43366,0
bike_v1,1763573995310,0.61292,9.31823,1.2378,-77.70914,-58.46191,-12.737,22.59609,88.43366,0
bike_v1,1763573995330,-0.35674,7.29513,12.1386,-107.89815,-81.56844,26.34298,22.59609,88.43366,0
bike_v1,1763573995352,0.13408,8.8346,8.10916,-86.89123,-30.99437,-1.68336,22.59609,88.43366,0
bike_v1,1763573995370,2.17633,7.65187,6.80911,-91.14368,-47.44771,0.94723,22.59609,88.43366,0
bike_v1,1763573995390,1.3216,7.56807,3.69425,-110.68369,-46.94809,17.72493,22.59609,88.43366,0
bike_v1,1763573995411,0.22745,6.64391,3.37104,-107.45658,-62.59631,19.6844,22.59609,88.43366,0
bike_v1,1763573995431,2.66475,5.36062,20.55422,-93.50362,-63.04479,3.85999,22.59609,88.43366,0
bike_v1,1763573995452,0.84515,8.57603,9.71806,-116.9943,-14.50116,7.38689,22.59609,88.43366,0
bike_v1,1763573995470,0.87388,7.09163,3.57215,-96.85898,-41.3208,4.97035,22.59609,88.43366,0
bike_v1,1763573995491,-0.28491,7.17063,9.39485,-102.38724,-62.5902,13.74673,22.59609,88.43366,0
bike_v1,1763573995510,3.46441,5.13556,13.98214,-87.33656,-37.34004,-1.73703,22.59609,88.43366,0
bike_v1,1763573995530,-0.58179,7.57525,9.40203,-125.34489,-19.62186,13.91614,22.59609,88.43366,0
bike_v1,1763573995552,4.48195,5.18105,11.21684,-84.78628,-38.80505,-3.54091,22.59609,88.43366,0
bike_v1,1763573995570,2.89459,6.51702,4.79319,-133.17281,-23.21576,21.78032,22.59609,88.43366,0
bike_v1,1763573995590,-0.34955,3.48356,3.15077,-122.25177,-49.3309,31.12761,22.59609,88.43366,0
bike_v1,1763573995609,0.16041,5.68862,5.85382,-82.43959,-47.69728,-6.33063,22.59609,88.43366,0
bike_v1,1763573995629,1.30245,6.49547,6.24168,-92.03531,-44.16927,1.56968,22.59609,88.43366,0
bike_v1,1763573995652,4.08211,2.22182,7.18261,-104.51362,-45.53122,11.78672,22.59609,88.43366,0
bike_v1,1763573995669,-0.52433,5.42766,2.03507,-153.05365,-15.05266,29.61101,22.59609,88.43366,0
bike_v1,1763573995689,1.56581,1.39103,5.09007,-78.14603,-68.83411,-14.44787,22.59609,88.43366,0
bike_v1,1763573995709,3.18908,2.77727,19.19671,-139.43242,-14.63879,17.09894,22.59609,88.43366,0
bike_v1,1763573996169,0.15562,6.77559,12.03086,-108.9549,-41.47946,14.24601,22.59609,88.43366,0
bike_v1,1763573996189,-0.55545,6.6894,4.10366,-91.44469,-29.38547,0.7411,22.59609,88.43366,0
bike_v1,1763573996209,2.15239,4.57053,8.38928,-82.46037,-58.24036,-7.70847,22.59609,88.43366,0
bike_v1,1763573996230,0.10056,8.3007,3.33752,-117.34883,-27.82124,14.38966,22.59609,88.43366,0
bike_v1,1763573996249,2.27928,3.56257,12.90235,-91.45192,-68.08708,1.72575,22.59609,88.43366,0
bike_v1,1763573996269,-1.82199,8.80827,6.6463,-123.36905,-15.21141,10.01829,22.59609,88.43366,0
bike_v1,1763573996288,2.07338,3.0143,8.65504,-73.56213,-51.96066,-15.33019,22.59609,88.43366,0
bike_v1,1763573996309,-0.11971,9.40442,-1.63285,-125.75406,-18.71065,13.47175,22.59609,88.43366,0
bike_v1,1763573996329,5.73172,4.71179,24.28439,-87.00433,-80.12428,-4.19305,22.59609,88.43366,0
bike_v1,1763573996354,-0.67516,6.39012,10.58477,-141.15785,-10.69363,13.28018,22.59609,88.43366,0
bike_v1,1763573996369,1.37906,3.90973,15.60541,-83.29989,-31.06834,-3.64975,22.59609,88.43366,0
bike_v1,1763573996389,-1.24977,8.57364,14.32451,-109.81898,-14.01276,5.05015,22.59609,88.43366,0
bike_v1,1763573996409,1.16358,8.39168,4.97755,-80.80585,-30.80611,-4.98627,22.59609,88.43366,0
bike_v1,1763573996429,-0.7853,7.28795,-6.52899,-102.64385,-58.65257,13.15754,22.59609,88.43366,0
bike_v1,1763573996449,-0.67038,5.22894,-7.96311,-81.85816,-47.93951,-6.85852,22.59609,88.43366,0
bike_v1,1763573996469,-0.92656,5.54497,-5.03501,-81.75231,-33.19794,-4.8121,22.59609,88.43366,0
bike_v1,1763573996489,0.34955,5.31992,-6.91685,-77.56427,-47.28439,-10.42706,22.59609,88.43366,0
bike_v1,1763573996508,0.70629,1.78847,-4.72615,-94.4081,-37.52945,2.89307,22.59609,88.43366,0
bike_v1,1763573996530,3.57215,7.23767,46.06683,-112.50067,-20.51903,8.49954,22.59609,88.43366,0
bike_v1,1763573996549,-2.6432,2.42054,-11.04445,-116.47594,-8.90259,4.434,22.59609,88.43366,0
bike_v1,1763573996568,4.98712,5.38695,34.88831,-41.79617,-12.03221,-13.45911,22.59609,88.43366,0
bike_v1,1763573996588,0.46926,6.21535,22.33072,-133.10922,-8.69051,8.13506,22.59609,88.43366,0
bike_v1,1763573996608,4.06057,7.91284,9.32781,-94.42681,-15.55031,1.20385,22.59609,88.43366,0
bike_v1,1763573996629,-2.87304,7.04614,11.30542,-121.84403,-37.8759,23.52437,22.59609,88.43366,0
bike_v1,1763573996649,3.49553,5.82988,15.12896,-65.39335,-31.13419,-14.25872,22.59609,88.43366,0
bike_v1,1763573996668,1.12049,3.26569,14.69322,-122.30084,-20.57887,13.00985,22.59609,88.43366,0
bike_v1,1763573996688,1.6927,8.36534,6.41646,-109.23851,-12.49565,4.36087,22.59609,88.43366,0
bike_v1,1763573996709,0.91459,9.63187,10.74039,-105.98879,-51.57608,14.77828,22.59609,88.43366,0
bike_v1,1763573996729,-1.22823,9.09797,-2.78446,-96.64439,-41.78258,4.86721,22.59609,88.43366,0
bike_v1,1763573997127,2.87065,4.24492,2.49236,-87.28796,-30.83705,-1.46073,22.59609,88.43366,0
bike_v1,1763573997149,1.81241,5.0374,10.16817,-135.51968,-48.15317,49.03472,22.59609,88.43366,0
bike_v1,1763573997168,0.91219,4.31675,12.8425,-111.24199,-25.99948,10.10646,22.59609,88.43366,0
bike_v1,1763573997188,1.24498,5.20739,17.85356,-102.36326,-18.53554,4.06284,22.59609,88.43366,0
bike_v1,1763573997208,2.83473,2.04225,10.18015,-103.81387,-16.22318,3.98896,22.59609,88.43366,0
bike_v1,1763573997228,3.44286,2.70784,9.40682,-144.89468,-10.93808,15.56024,22.59609,88.43366,0
bike_v1,1763573997247,0.49081,0.98402,5.41329,-143.03903,-15.12682,20.10245,22.59609,88.43366,0
bike_v1,1763573997270,0.00479,1.72143,6.56011,-116.78798,-10.26143,5.18072,22.59609,88.43366,0
bike_v1,1763573997287,-0.81882,9.83778,9.20092,-90.16297,-14.70341,0.04182,22.59609,88.43366,0
bike_v1,1763573997307,-1.88184,18.11213,-22.87899,-83.79869,-46.80312,-5.08552,22.59609,88.43366,0
bike_v1,1763573997327,4.94163,5.09247,17.57823,-82.99592,-38.2729,-4.70209,22.59609,88.43366,0
bike_v1,1763573997347,-0.32082,3.80918,14.2024,-135.217,-15.58337,15.70186,22.59609,88.43366,0
bike_v1,1763573997367,-0.32082,3.64637,9.6606,-85.07259,-15.01009,-1.29405,22.59609,88.43366,0
bike_v1,1763573997387,1.18274,3.52426,6.11719,-84.74204,-20.66846,-1.90206,22.59609,88.43366,0
bike_v1,1763573997407,0.65841,4.67348,12.95503,-110.35552,-29.49464,10.94291,22.59609,88.43366,0
bike_v1,1763573997427,0.66798,3.52426,11.44907,-98.35373,-19.81316,2.90941,22.59609,88.43366,0
bike_v1,1763573997447,1.29047,3.72298,5.07571,-101.06024,-17.08211,3.33907,22.59609,88.43366,0
bike_v1,1763573997467,1.21147,8.62391,3.27287,-111.94317,-35.40805,14.26494,22.59609,88.43366,0
bike_v1,1763573997486,0.62489,7.41484,4.77643,-106.63876,-67.968,20.31222,22.59609,88.43366,0
bike_v1,1763573997507,1.53947,6.02621,11.23359,-97.45123,-56.98978,7.45351,22.59609,88.43366,0
bike_v1,1763573997527,1.63045,6.11479,6.01184,-105.57809,-27.98964,7.80331,22.59609,88.43366,0
bike_v1,1763573997547,0.78051,5.59046,5.04458,-108.84067,-44.46983,15.174,22.59609,88.43366,0
bike_v1,1763573997567,-0.13886,6.78996,5.23133,-100.46842,-47.60103,8.7952,22.59609,88.43366,0
bike_v1,1763573997587,2.38462,8.03973,13.2974,-88.33716,-52.37775,-1.52054,22.59609,88.43366,0
bike_v1,1763573997607,1.6927,6.42364,10.07959,-108.29112,-30.75754,10.1668,22.59609,88.43366,0
bike_v1,1763573997627,0.30885,4.23055,8.85615,-106.51631,-32.14902,9.53293,22.59609,88.43366,0
bike_v1,1763573997647,1.48201,5.43723,9.87608,-94.47515,-25.52011,1.99734,22.59609,88.43366,0
bike_v1,1763573997669,1.84354,7.25204,7.61356,-106.6336,-28.56607,8.53416,22.59609,88.43366,0
bike_v1,1763573997687,0.25857,7.33344,4.33829,-107.64498,-42.79237,13.61152,22.59609,88.43366,0
bike_v1,1763573997707,-0.28491,4.15394,5.11641,-93.28938,-59.34789,3.41094,22.59609,88.43366,0
bike_v1,1763573997728,1.20428,4.99191,7.00783,-85.33141,-39.02927,-3.18725,22.59609,88.43366,0
bike_v1,1763573998247,0.50518,5.48512,14.30775,-108.64834,-28.73438,9.69718,22.59609,88.43366,0
bike_v1,1763573998266,1.14922,9.15064,5.23612,-95.50981,-20.96324,2.02215,22.59609,88.43366,0
bike_v1,1763573998286,2.59292,5.05177,9.03093,-101.72647,-59.6368,12.37893,22.59609,88.43366,0
bike_v1,1763573998307,1.13964,3.86664,14.24789,-119.5428,-28.26526,16.0196,22.59609,88.43366,0
bike_v1,1763573998325,0.90261,6.8139,2.91614,-106.8102,-15.13728,4.57316,22.59609,88.43366,0
bike_v1,1763573998346,1.97761,8.5904,-2.00155,-104.63366,-65.86757,17.19854,22.59609,88.43366,0
bike_v1,1763573998369,1.43413,4.15633,12.21522,-121.85622,-71.86404,44.65527,22.59609,88.43366,0
bike_v1,1763573998388,3.03585,5.91128,11.06839,-109.72881,-18.67204,6.69615,22.59609,88.43366,0
bike_v1,1763573998405,2.12605,7.52019,5.73411,-119.37289,-27.25058,15.33793,22.59609,88.43366,0
bike_v1,1763573998425,0.84755,10.71884,5.89452,-111.79255,-50.8813,20.34339,22.59609,88.43366,0
bike_v1,1763573998445,1.23301,4.64954,5.94001,-97.64664,-60.94444,8.18223,22.59609,88.43366,0
bike_v1,1763573998466,1.6496,4.51307,11.83693,-107.37959,-37.46696,11.72678,22.59609,88.43366,0
bike_v1,1763573998488,1.92733,3.78044,14.31014,-110.98183,-20.68758,7.93369,22.59609,88.43366,0
bike_v1,1763573998506,1.33836,7.1012,7.26161,-117.60147,-14.6716,7.67061,22.59609,88.43366,0
bike_v1,1763573998526,1.51792,7.23528,-3.40695,-103.38595,-43.88187,10.44276,22.59609,88.43366,0
bike_v1,1763573998546,0.81163,5.04219,14.38197,-110.94858,-62.72882,24.01477,22.59609,88.43366,0
bike_v1,1763573998572,0.93853,4.63757,14.619,-99.50484,-19.29178,3.23001,22.59609,88.43366,0
bike_v1,1763573998588,1.37188,5.29837,6.09085,-101.81076,-17.5666,3.6733,22.59609,88.43366,0
bike_v1,1763573998605,2.9305,5.95438,-1.1564,-107.47509,-40.31894,12.69324,22.59609,88.43366,0
bike_v1,1763573998626,0.43814,7.37893,6.81629,-137.78329,-62.11705,68.46542,22.59609,88.43366,0
bike_v1,1763573998646,0.7853,4.51068,6.88094,-94.45444,-47.21088,3.67781,22.59609,88.43366,0
bike_v1,1763573998670,2.00634,3.49793,12.95263,-101.13582,-33.07639,6.51081,22.59609,88.43366,0
bike_v1,1763573998688,2.70066,3.37343,10.26394,-120.50932,-14.94244,8.80504,22.59609,88.43366,0
bike_v1,1763573998705,3.02148,6.92643,10.22803,-129.89667,-17.63283,14.74159,22.59609,88.43366,0
bike_v1,1763573998725,1.28329,7.49625,5.65989,-116.50505,-33.00189,16.45777,22.59609,88.43366,0
bike_v1,1763573998746,-0.72065,6.55532,-0.47166,-103.73827,-52.25316,12.77493,22.59609,88.43366,0
bike_v1,1763573999204,1.65918,3.07655,12.65336,-126.62899,-33.14114,24.63881,22.59609,88.43366,0
bike_v1,1763573999224,1.71904,3.47399,2.82037,-118.86138,-13.55408,7.47034,22.59609,88.43366,0
bike_v1,1763573999244,3.98395,8.23845,4.79319,-124.02939,-46.4456,31.36263,22.59609,88.43366,0
bike_v1,1763573999264,1.00078,5.93523,-0.66798,-126.91422,-52.89111,39.7323,22.59609,88.43366,0
bike_v1,1763573999283,1.03908,9.52653,7.17303,-125.62374,-78.53993,56.27831,22.59609,88.43366,0
bike_v1,1763573999303,2.43969,5.13317,4.58968,-98.88338,-52.73568,8.24252,22.59609,88.43366,0
bike_v1,1763573999323,1.5682,6.04775,6.39252,-122.09058,-44.64146,27.99331,22.59609,88.43366,0
bike_v1,1763573999343,1.99198,4.13239,4.03423,-107.93818,-42.57753,13.78351,22.59609,88.43366,0
bike_v1,1763573999363,2.69587,5.20021,15.75864,-121.68938,-42.5665,26.27871,22.59609,88.43366,0
bike_v1,1763573999383,2.67193,6.21774,8.3414,-118.31506,-18.01793,9.70777,22.59609,88.43366,0
bike_v1,1763573999403,1.46046,7.92481,6.80193,-116.66388,-35.3701,17.76138,22.59609,88.43366,0
bike_v1,1763573999424,1.84593,3.58173,11.35809,-103.96749,-48.72107,12.11817,22.59609,88.43366,0
bike_v1,1763573999443,3.54342,5.46836,14.18804,-118.09845,-17.28937,9.23106,22.59609,88.43366,0
bike_v1,1763573999463,5.49709,6.48829,8.48266,-124.36998,-20.50252,14.02259,22.59609,88.43366,0
bike_v1,1763573999483,0.72544,5.92565,5.93523,-135.21715,-32.69601,32.94479,22.59609,88.43366,0
bike_v1,1763573999503,-0.46448,3.36625,6.73968,-98.85275,-44.74133,6.96851,22.59609,88.43366,0
bike_v1,1763573999523,4.05099,3.49314,4.09408,-81.53392,-26.4864,-3.94239,22.59609,88.43366,0
bike_v1,1763573999543,2.77249,5.96874,3.85227,-145.05191,-31.23676,44.69685,22.59609,88.43366,0
bike_v1,1763573999563,1.86508,4.57293,10.91038,-124.75719,-51.50897,35.74263,22.59609,88.43366,0
bike_v1,1763573999585,2.30083,5.2026,11.17853,-113.37154,-22.44759,9.70071,22.59609,88.43366,0
bike_v1,1763573999603,2.00634,3.94325,5.89452,-115.38889,-24.50607,11.63052,22.59609,88.43366,0
bike_v1,1763573999623,1.55863,4.20661,1.69031,-120.16244,-32.34563,18.79722,22.59609,88.43366,0
bike_v1,1763573999643,3.16513,4.10845,10.06283,-124.82932,-61.34009,42.67904,22.59609,88.43366,0
bike_v1,1763573999664,0.50757,6.30872,5.14514,-129.36984,-21.27934,17.4603,22.59609,88.43366,0
bike_v1,1763573999685,2.3966,2.64559,9.01178,-96.34534,-50.66473,5.63403,22.59609,88.43366,0
bike_v1,1763573999703,3.16035,8.62631,9.86651,-133.23578,-15.83914,14.89257,22.59609,88.43366,0
bike_v1,1763573999723,1.77171,3.74453,10.72602,-114.05863,-39.78183,17.76081,22.59609,88.43366,0
bike_v1,1763573999743,2.42293,6.62236,13.47936,-116.26636,-19.00575,9.37934,22.59609,88.43366,0
bike_v1,1763574000163,0.65122,5.53779,4.11803,-103.15592,-48.80214,11.40684,22.59609,88.43366,0
bike_v1,1763574000183,1.92973,2.90177,3.82833,-99.61866,-53.02522,8.98631,22.59609,88.43366,0
bike_v1,1763574000203,2.74376,6.90488,9.30387,-128.12029,-34.09204,26.75108,22.59609,88.43366,0
bike_v1,1763574000223,1.50356,5.96635,6.67982,-114.87083,-35.44489,16.43104,22.59609,88.43366,0
bike_v1,1763574000243,-0.36152,5.9472,9.37569,-107.16491,-41.06851,12.68527,22.59609,88.43366,0
bike_v1,1763574000263,1.30245,3.00233,6.78996,-86.09727,-32.36856,-2.20822,22.59609,88.43366,0
bike_v1,1763574000284,1.88184,4.69982,11.83214,-114.825,-23.47314,10.85855,22.59609,88.43366,0
bike_v1,1763574000303,2.6001,8.73165,4.2545,-112.87547,-21.41895,9.03691,22.59609,88.43366,0
bike_v1,1763574000323,0.3304,8.87531,-0.70868,-117.54132,-60.27197,31.43087,22.59609,88.43366,0
bike_v1,1763574000343,0.86431,4.62081,10.71884,-106.39322,-84.96523,24.9957,22.59609,88.43366,0
bike_v1,1763574000363,3.10049,4.69503,11.97819,-101.21375,-23.25308,4.61003,22.59609,88.43366,0
bike_v1,1763574000384,3.37582,10.20409,6.7732,-124.92982,-20.77969,14.5122,22.59609,88.43366,0
bike_v1,1763574000402,1.22823,4.22337,14.23592,-116.37029,-53.43755,26.49209,22.59609,88.43366,0
bike_v1,1763574000423,0.03112,8.5904,5.50427,-106.67117,-16.4662,4.93107,22.59609,88.43366,0
bike_v1,1763574000442,1.65918,9.26795,3.86664,-90.32368,-57.34999,0.32398,22.59609,88.43366,0
bike_v1,1763574000462,2.73178,2.65756,9.40682,-109.50028,-65.5823,23.22428,22.59609,88.43366,0
bike_v1,1763574000485,1.06303,6.1124,6.04775,-136.85167,-15.17929,16.19354,22.59609,88.43366,0
bike_v1,1763574000502,1.30245,4.31914,10.46506,-102.52677,-44.86874,9.96916,22.59609,88.43366,0
bike_v1,1763574000522,1.88184,6.81869,6.22492,-107.66833,-22.27206,7.09436,22.59609,88.43366,0
bike_v1,1763574000543,3.22978,7.4316,6.07888,-109.9432,-46.35681,16.82047,22.59609,88.43366,0
bike_v1,1763574000563,1.1971,3.56975,14.60942,-120.66547,-47.1922,27.98223,22.59609,88.43366,0
bike_v1,1763574000585,1.13246,2.99754,12.12424,-108.89373,-13.68681,4.68437,22.59609,88.43366,0
bike_v1,1763574000603,3.41892,3.63679,7.57525,-111.09984,-13.82919,5.3362,22.59609,88.43366,0
bike_v1,1763574000622,3.26809,3.98156,-3.61046,-135.786,-23.63348,24.29096,22.59609,88.43366,0
bike_v1,1763574000642,-0.67516,4.79319,9.80426,-137.0269,-39.26901,42.15053,22.59609,88.43366,0
bike_v1,1763574000663,1.76692,3.91691,13.07713,-81.38431,-26.00006,-3.93942,22.59609,88.43366,0
bike_v1,1763574000684,4.2952,6.37336,6.52659,-114.95956,-16.5323,7.69494,22.59609,88.43366,0
bike_v1,1763574000703,2.4349,6.67743,2.88022,-130.38573,-39.20496,33.3492,22.59609,88.43366,0
bike_v1,1763574000722,-0.05986,3.64398,12.86405,-123.59151,-60.54147,40.21073,22.59609,88.43366,0
bike_v1,1763574000742,2.44927,7.16585,13.64456,-89.03431,-15.81558,-0.26659,22.59609,88.43366,0
bike_v1,1763574000762,5.23133,7.83143,4.02465,-110.41956,-27.33525,10.17651,22.59609,88.43366,0
bike_v1,1763574001142,2.52588,4.03184,-1.33357,-120.61725,-13.271,7.85384,22.59609,88.43366,0
bike_v1,1763574001162,2.58334,7.94875,1.60651,-138.66405,-54.68477,62.16764,22.59609,88.43366,0
bike_v1,1763574001183,0.20111,7.94875,8.00142,-130.08644,-69.05726,58.12367,22.59609,88.43366,0
bike_v1,1763574001202,1.18513,2.13563,6.90727,-91.8407,-44.80174,1.43981,22.59609,88.43366,0
bike_v1,1763574001222,2.57856,3.09091,12.60547,-119.87585,-16.94768,9.73585,22.59609,88.43366,0
bike_v1,1763574001241,2.78685,4.86502,3.69425,-130.55824,-13.50818,11.56084,22.59609,88.43366,0
bike_v1,1763574001261,1.77889,3.53145,11.3533,-128.57201,-46.43315,37.02997,22.59609,88.43366,0
bike_v1,1763574001282,2.68629,7.72609,14.34845,-117.53306,-17.08224,8.90498,22.59609,88.43366,0
bike_v1,1763574001306,2.55461,6.14592,6.69179,-110.81682,-27.89075,10.60407,22.59609,88.43366,0
bike_v1,1763574001321,0.73741,6.73728,-0.0814,-117.21478,-40.63055,20.89451,22.59609,88.43366,0
bike_v1,1763574001341,-0.89064,4.32153,8.6311,-134.99472,-83.71606,83.70065,22.59609,88.43366,0
bike_v1,1763574001361,2.53546,5.77003,12.07396,-77.45461,-26.47556,-5.8915,22.59609,88.43366,0
bike_v1,1763574001381,3.89776,7.16824,13.88158,-115.32108,-25.065,11.85945,22.59609,88.43366,0
bike_v1,1763574001403,1.2809,7.31189,4.51546,-120.6812,-26.43466,15.68402,22.59609,88.43366,0
bike_v1,1763574001421,-0.4118,6.44998,6.83545,-105.44939,-57.30291,15.837,22.59609,88.43366,0
bike_v1,1763574001441,1.901,3.27287,10.10593,-85.44617,-43.28625,-3.44763,22.59609,88.43366,0
bike_v1,1763574001460,2.85149,5.06374,8.32464,-121.10737,-17.65497,10.65325,22.59609,88.43366,0
bike_v1,1763574001481,1.68791,7.00543,6.31112,-122.29236,-29.91867,18.90821,22.59609,88.43366,0
bike_v1,1763574001504,-0.17238,3.15316,6.69898,-107.67134,-46.99886,14.97335,22.59609,88.43366,0
bike_v1,1763574001520,1.48201,5.70059,13.89116,-86.65219,-25.19875,-1.47405,22.59609,88.43366,0
bike_v1,1763574001541,3.40216,8.7963,3.82115,-105.34058,-22.19841,6.0897,22.59609,88.43366,0
bike_v1,1763574001560,0.54588,2.95684,6.98389,-124.86902,-59.81622,41.6803,22.59609,88.43366,0
bike_v1,1763574001580,0.44293,4.63039,16.97968,-101.05076,-22.88426,4.46929,22.59609,88.43366,0
bike_v1,1763574001604,1.19231,1.85311,8.41083,-95.59666,-15.24881,1.49426,22.59609,88.43366,0
bike_v1,1763574001621,2.32716,3.12443,12.82334,-123.25106,-12.30592,8.06844,22.59609,88.43366,0
bike_v1,1763574001640,3.01909,7.26401,11.50175,-127.34276,-13.48145,10.28602,22.59609,88.43366,0
bike_v1,1763574001660,2.71502,5.41568,3.87861,-115.08491,-31.41922,14.70775,22.59609,88.43366,0
bike_v1,1763574001681,1.95846,6.71334,3.00233,-125.62032,-48.83974,34.99202,22.59609,88.43366,0
bike_v1,1763574001704,0.36871,3.64398,4.4987,-118.14716,-61.89978,33.11692,22.59609,88.43366,0
bike_v1,1763574001720,1.66876,8.08043,10.21606,-96.86562,-38.91388,4.6854,22.59609,88.43366,0
bike_v1,1763574001740,2.87065,5.61919,4.18985,-103.72793,-37.97589,9.27714,22.59609,88.43366,0
bike_v1,1763574001761,1.72383,6.09085,11.77468,-125.70277,-47.89104,34.41671,22.59609,88.43366,0
bike_v1,1763574002260,0.95529,4.15633,14.76983,-114.95137,-26.57779,12.36597,22.59609,88.43366,0
bike_v1,1763574002280,1.88903,2.41096,10.5704,-103.27462,-15.68582,3.70063,22.59609,88.43366,0
bike_v1,1763574002300,2.40617,5.79636,7.57286,-128.68341,-12.65469,10.13231,22.59609,88.43366,0
bike_v1,1763574002320,1.48201,7.27358,0.97683,-116.01923,-36.10983,17.62694,22.59609,88.43366,0
bike_v1,1763574002339,-0.31364,4.84347,9.30387,-126.5782,-76.28607,56.61002,22.59609,88.43366,0
bike_v1,1763574002360,1.03908,3.47159,10.21366,-85.98209,-27.48756,-1.93075,22.59609,88.43366,0
bike_v1,1763574002380,2.90177,7.23288,7.2281,-107.27165,-18.68304,5.80898,22.59609,88.43366,0
bike_v1,1763574002400,0.89783,8.15226,5.06374,-117.02612,-42.88054,21.87336,22.59609,88.43366,0
bike_v1,1763574002420,1.29287,4.80516,18.0834,-99.87544,-57.75491,10.05434,22.59609,88.43366,0
bike_v1,1763574002440,2.21942,1.80283,3.49314,-105.40174,-14.84468,4.08939,22.59609,88.43366,0
bike_v1,1763574002460,3.0957,8.0517,5.41329,-144.0271,-23.53873,32.43052,22.59609,88.43366,0
bike_v1,1763574002480,-0.10295,4.46758,8.45153,-119.67129,-52.24263,29.76398,22.59609,88.43366,0
bike_v1,1763574002500,1.10373,3.72538,14.93982,-88.565,-27.85971,-0.6979,22.59609,88.43366,0
bike_v1,1763574002523,2.70545,5.79397,8.6311,-106.83353,-13.9651,4.22523,22.59609,88.43366,0
bike_v1,1763574002539,1.6496,4.66151,4.9943,-118.06532,-32.64194,17.40378,22.59609,88.43366,0
bike_v1,1763574002559,0.43814,5.72214,7.97269,-113.74532,-41.54968,18.27825,22.59609,88.43366,0
bike_v1,1763574002579,1.45328,2.54743,10.46984,-95.04562,-35.62677,3.14552,22.59609,88.43366,0
bike_v1,1763574002599,2.41814,9.45231,7.81467,-120.25138,-13.54993,7.90252,22.59609,88.43366,0
bike_v1,1763574002620,2.45645,7.39569,7.27598,-109.28979,-49.1263,17.19396,22.59609,88.43366,0
bike_v1,1763574002639,0.50278,1.04866,5.27682,-113.01285,-43.92163,18.65525,22.59609,88.43366,0
bike_v1,1763574002659,0.54827,2.24097,8.56406,-115.93708,-11.19054,5.44279,22.59609,88.43366,0
bike_v1,1763574002681,1.62806,4.68545,4.78362,-104.05201,-14.63522,3.66308,22.59609,88.43366,0
bike_v1,1763574002703,2.83952,5.36541,6.80193,-113.68976,-42.83817,18.79551,22.59609,88.43366,0
bike_v1,1763574002720,1.30963,2.97599,9.40203,-122.14933,-36.05179,22.65852,22.59609,88.43366,0
bike_v1,1763574002739,2.23618,4.54419,13.7906,-114.49281,-17.4062,7.92983,22.59609,88.43366,0
bike_v1,1763574002759,1.41018,6.05015,4.40773,-117.07548,-18.01791,9.2105,22.59609,88.43366,0
bike_v1,1763574002780,2.29843,6.74447,1.32639,-108.64277,-52.58729,17.74129,22.59609,88.43366,0
bike_v1,1763574003238,1.52511,8.30549,11.12107,-114.92776,-31.85373,14.80477,22.59609,88.43366,0
bike_v1,1763574003259,0.60094,3.57215,8.64546,-102.07631,-36.49771,7.80865,22.59609,88.43366,0
bike_v1,1763574003278,1.6089,7.39329,7.60398,-100.06535,-22.40085,3.97622,22.59609,88.43366,0
bike_v1,1763574003299,1.24977,4.04141,9.80426,-105.33413,-43.56828,11.94683,22.59609,88.43366,0
bike_v1,1763574003319,1.08936,7.27119,4.9967,-108.08929,-22.23972,7.26446,22.59609,88.43366,0
bike_v1,1763574003338,1.4461,3.79481,11.22162,-102.63165,-54.88,12.29896,22.59609,88.43366,0
bike_v1,1763574003357,0.36392,5.8227,7.36696,-111.60554,-18.54124,7.34307,22.59609,88.43366,0
bike_v1,1763574003378,1.26893,6.00466,3.93607,-94.22431,-38.28818,2.82804,22.59609,88.43366,0
bike_v1,1763574003399,1.3623,5.06134,10.65899,-107.86315,-55.44386,17.86851,22.59609,88.43366,0
bike_v1,1763574003418,1.37427,2.52828,9.72285,-106.10776,-25.22096,7.28336,22.59609,88.43366,0
bike_v1,1763574003438,0.44293,5.97832,15.19839,-119.12639,-14.43863,8.04515,22.59609,88.43366,0
bike_v1,1763574003458,1.62327,3.40216,4.52744,-94.44706,-21.46402,1.6693,22.59609,88.43366,0
bike_v1,1763574003477,1.54426,5.60004,3.83072,-119.21332,-35.27414,19.72481,22.59609,88.43366,0
bike_v1,1763574003498,1.26174,6.69898,0.77812,-112.27886,-53.58958,21.9556,22.59609,88.43366,0
bike_v1,1763574003520,0.4956,4.77643,13.59907,-126.96258,-77.52236,58.33794,22.59609,88.43366,0
bike_v1,1763574003538,1.67115,3.66552,9.75877,-96.1591,-19.34105,2.08714,22.59609,88.43366,0
bike_v1,1763574003557,2.16196,4.80037,11.59751,-115.56272,-20.31577,9.71743,22.59609,88.43366,0
bike_v1,1763574003578,1.74058,8.37971,7.74045,-115.49715,-22.14162,10.55965,22.59609,88.43366,0
bike_v1,1763574003598,1.47004,3.47878,12.33014,-105.22467,-46.56592,12.67321,22.59609,88.43366,0
bike_v1,1763574003620,0.87628,5.45399,4.93445,-113.48137,-15.65031,6.7989,22.59609,88.43366,0
bike_v1,1763574003637,1.63763,5.21936,1.68073,-101.98883,-47.42021,10.06982,22.59609,88.43366,0
bike_v1,1763574003657,1.29526,3.00951,7.78116,-123.92763,-65.79123,44.25594,22.59609,88.43366,0
bike_v1,1763574003678,1.65679,5.12359,14.84405,-114.34995,-20.88283,9.45089,22.59609,88.43366,0
bike_v1,1763574003698,2.49715,4.5011,11.53526,-108.59114,-18.93356,6.36859,22.59609,88.43366,0
bike_v1,1763574003719,1.17555,4.15394,4.30477,-120.33341,-20.87534,12.2149,22.59609,88.43366,0
bike_v1,1763574003738,1.44849,6.58645,-0.80445,-109.57666,-42.94971,15.27399,22.59609,88.43366,0
bike_v1,1763574003757,0.06225,3.39258,8.42759,-128.77458,-75.87968,60.95344,22.59609,88.43366,0
bike_v1,1763574003777,2.29125,4.29999,12.35169,-91.10569,-21.92705,0.4232,22.59609,88.43366,0
bike_v1,1763574003797,2.48039,4.06775,11.24796,-119.0811,-18.89557,10.50898,22.59609,88.43366,0
bike_v1,1763574004176,1.83156,4.24013,17.20952,-103.53842,-14.11006,3.39754,22.59609,88.43366,0
bike_v1,1763574004197,3.31358,5.88255,6.65349,-113.81158,-13.76627,6.07497,22.59609,88.43366,0
bike_v1,1763574004218,0.90501,4.03902,11.00615,-124.61253,-38.35867,26.47426,22.59609,88.43366,0
bike_v1,1763574004236,-0.02155,2.94008,10.63504,-103.1695,-20.08969,4.70072,22.59609,88.43366,0
bike_v1,1763574004256,1.67834,1.61369,6.69419,-89.5696,-15.45354,-0.11609,22.59609,88.43366,0
bike_v1,1763574004276,1.30245,6.33506,10.32619,-136.92259,-13.16057,14.07481,22.59609,88.43366,0
bike_v1,1763574004296,1.20428,6.21056,7.92241,-102.92393,-31.32768,7.18877,22.59609,88.43366,0
bike_v1,1763574004316,0.09337,6.81629,5.31992,-102.8876,-37.77638,8.64334,22.59609,88.43366,0
bike_v1,1763574004340,0.38547,6.02142,5.10923,-91.10728,-52.02473,1.00554,22.59609,88.43366,0
bike_v1,1763574004356,1.09654,3.95762,14.09706,-94.97095,-49.60486,4.31452,22.59609,88.43366,0
bike_v1,1763574004376,2.61926,4.56095,9.35415,-105.87828,-15.63667,4.44781,22.59609,88.43366,0
bike_v1,1763574004396,1.07739,4.65912,3.17471,-121.87943,-25.15132,15.64279,22.59609,88.43366,0
bike_v1,1763574004416,-1.13246,5.69581,11.73159,-109.05796,-54.26247,18.74549,22.59609,88.43366,0
bike_v1,1763574004440,0.73502,6.11479,11.40119,-77.93353,-25.7928,-5.51371,22.59609,88.43366,0
bike_v1,1763574004455,1.80523,5.7796,2.85149,-97.46361,-28.15649,3.68868,22.59609,88.43366,0
bike_v1,1763574004476,-0.60094,5.51863,14.121,-118.43542,-59.71803,32.33714,22.59609,88.43366,0
bike_v1,1763574004495,-0.42377,4.36224,4.96797,-83.48203,-21.32851,-2.43685,22.59609,88.43366,0
bike_v1,1763574004516,0.98162,5.54737,4.6256,-83.24818,-41.18253,-4.8756,22.59609,88.43366,0
bike_v1,1763574004538,0.14844,2.07817,6.7325,-103.59187,-49.55551,11.98129,22.59609,88.43366,0
bike_v1,1763574004556,0.5363,4.1276,10.57519,-94.21207,-17.15033,1.26307,22.59609,88.43366,0
bike_v1,1763574004575,0.1221,5.77242,4.87938,-97.76285,-21.2963,2.90316,22.59609,88.43366,0
bike_v1,1763574004595,0.0814,8.30309,8.79151,-91.64935,-49.78358,1.4335,22.59609,88.43366,0
bike_v1,1763574004616,0.61531,3.9624,10.77151,-90.70094,-43.36218,0.5305,22.59609,88.43366,0
bike_v1,1763574004639,0.18196,5.91368,7.9703,-99.20878,-20.16631,3.2694,22.59609,88.43366,0
bike_v1,1763574004655,-0.47166,6.45477,2.61447,-92.04831,-36.56696,1.30782,22.59609,88.43366,0
bike_v1,1763574004675,0.85473,6.1938,3.52187,-81.40129,-67.62877,-10.22633,22.59609,88.43366,0
bike_v1,1763574004695,0.11253,6.43322,10.37647,-102.87796,-59.66733,13.64149,22.59609,88.43366,0
bike_v1,1763574004715,1.44849,6.59363,6.05972,-91.11944,-31.79665,0.62132,22.59609,88.43366,0
bike_v1,1763574004739,-0.14365,7.90805,6.66785,-106.08488,-46.62225,13.44349,22.59609,88.43366,0
bike_v1,1763574004755,1.16598,3.83312,13.8337,-88.58195,-49.85678,-1.23419,22.59609,88.43366,0
bike_v1,1763574004775,1.79805,7.98706,6.89291,-107.33477,-15.43518,4.8178,22.59609,88.43366,0
bike_v1,1763574004795,0.14605,6.2345,5.18824,-106.85036,-48.2706,14.62006,22.59609,88.43366,0
bike_v1,1763574004816,1.09894,5.25288,11.55442,-91.83889,-50.22226,1.61242,22.59609,88.43366,0
bike_v1,1763574005194,2.31759,4.60884,8.18099,-112.88206,-18.56551,7.83553,22.59609,88.43366,0
bike_v1,1763574005215,0.97444,5.50906,8.84658,-119.06431,-28.459,15.81686,22.59609,88.43366,0
bike_v1,1763574005236,2.66714,5.3678,7.68299,-101.19592,-31.75708,6.28572,22.59609,88.43366,0
bike_v1,1763574005255,1.68791,2.49715,9.50977,-119.80173,-33.42563,19.14438,22.59609,88.43366,0
bike_v1,1763574005274,2.33914,5.60722,7.01501,-124.77232,-14.49622,10.06475,22.59609,88.43366,0
bike_v1,1763574005294,1.19471,3.93846,5.6144,-116.38571,-37.17206,18.44082,22.59609,88.43366,0
bike_v1,1763574005314,2.45645,3.95522,7.54652,-109.22135,-34.4552,12.01297,22.59609,88.43366,0
bike_v1,1763574005335,2.83952,4.75728,8.99262,-124.24076,-26.49046,18.03046,22.59609,88.43366,0
bike_v1,1763574005356,0.96247,5.13317,8.36773,-123.20993,-26.76952,17.52411,22.59609,88.43366,0
bike_v1,1763574005374,2.01831,3.03106,9.89284,-101.81768,-31.35936,6.56141,22.59609,88.43366,0
bike_v1,1763574005394,2.91853,4.46519,11.71722,-124.6084,-16.71002,11.53109,22.59609,88.43366,0
bike_v1,1763574005413,2.74615,5.77481,7.99424,-124.57543,-20.29341,13.98665,22.59609,88.43366,0
bike_v1,1763574005434,1.13964,6.06691,4.58729,-118.90194,-34.34036,18.95842,22.59609,88.43366,0
bike_v1,1763574005456,0.34716,6.04775,4.97276,-104.99751,-52.07781,13.95178,22.59609,88.43366,0
bike_v1,1763574005474,2.71981,5.64313,12.47858,-94.52119,-50.50296,3.99347,22.59609,88.43366,0
bike_v1,1763574005495,3.07416,5.14035,11.54245,-117.28465,-23.83835,12.2958,22.59609,88.43366,0
bike_v1,1763574005513,1.08218,6.94079,5.89452,-122.63977,-23.28423,14.91366,22.59609,88.43366,0
bike_v1,1763574005534,0.91459,5.77721,-0.2897,-101.94121,-49.19096,10.40312,22.59609,88.43366,0
bike_v1,1763574005555,0.48123,5.12359,7.34541,-131.9518,-80.57145,72.4242,22.59609,88.43366,0
bike_v1,1763574005573,2.79882,5.63356,6.05254,-96.14089,-34.8391,3.74838,22.59609,88.43366,0
bike_v1,1763574005593,2.00634,3.29442,10.15381,-121.69361,-40.19186,24.81681,22.59609,88.43366,0
bike_v1,1763574005614,0.9505,8.03255,7.49864,-122.3362,-17.65614,11.17737,22.59609,88.43366,0
bike_v1,1763574005633,3.8403,5.30795,13.16572,-98.78584,-46.74101,7.22406,22.59609,88.43366,0
bike_v1,1763574005654,0.23224,6.45956,11.77708,-127.54453,-21.1582,16.2614,22.59609,88.43366,0
bike_v1,1763574005673,0.22266,5.26006,5.58088,-92.25104,-28.73943,1.1297,22.59609,88.43366,0
bike_v1,1763574005693,0.95768,6.32069,6.23929,-93.02164,-43.28217,2.28472,22.59609,88.43366,0
bike_v1,1763574005713,2.04704,7.18979,4.65433,-100.96552,-45.03778,8.72634,22.59609,88.43366,0
bike_v1,1763574005734,1.87227,4.86502,6.24647,-113.44926,-54.73215,23.74061,22.59609,88.43366,0
bike_v1,1763574005755,0.54109,3.67031,11.49217,-114.43367,-36.72481,16.68514,22.59609,88.43366,0
bike_v1,1763574005773,0.44772,6.48589,8.76757,-98.66251,-17.6938,2.69569,22.59609,88.43366,0
bike_v1,1763574005793,1.59214,5.54258,4.25689,-94.58441,-36.45688,2.92327,22.59609,88.43366,0
bike_v1,1763574005813,1.05105,5.07092,8.86094,-112.04211,-50.64838,20.50659,22.59609,88.43366,0
bike_v1,1763574006192,-0.63925,5.6144,8.91361,-69.59596,-80.06564,-29.78257,22.59609,88.43366,0
bike_v1,1763574006212,1.19471,6.66785,4.13239,-82.72652,-32.13928,-4.10202,22.59609,88.43366,0
bike_v1,1763574006231,-0.19393,6.38055,6.67264,-105.75056,-57.17275,16.12499,22.59609,88.43366,0
bike_v1,1763574006252,2.61686,7.99185,9.73243,-87.81868,-43.70602,-1.66475,22.59609,88.43366,0
bike_v1,1763574006272,1.01514,4.83868,14.33887,-111.39414,-38.41409,15.04979,22.59609,88.43366,0
bike_v1,1763574006293,0.25857,4.88417,7.66145,-102.28033,-18.60373,4.04958,22.59609,88.43366,0
bike_v1,1763574006313,2.49955,4.40294,3.08373,-93.40348,-32.50272,1.933,22.59609,88.43366,0
bike_v1,1763574006334,0.23942,5.81312,6.84502,-129.13455,-47.96335,39.02681,22.59609,88.43366,0
bike_v1,1763574006359,0.27294,6.85939,7.71412,-92.84415,-40.32224,2.00323,22.59609,88.43366,0
bike_v1,1763574006375,1.68552,3.05979,11.4371,-92.78702,-41.62567,2.02638,22.59609,88.43366,0
bike_v1,1763574006392,1.34554,7.31907,6.41885,-119.48849,-14.82472,8.3835,22.59609,88.43366,0
bike_v1,1763574006412,1.43413,5.30316,12.80898,-103.81726,-48.13759,11.8391,22.59609,88.43366,0
bike_v1,1763574006433,0.11253,7.56807,11.14022,-105.94183,-22.36461,6.38838,22.59609,88.43366,0
bike_v1,1763574006452,-0.18196,5.88255,6.03578,-90.96977,-34.18874,0.57873,22.59609,88.43366,0
bike_v1,1763574006475,1.01754,4.38378,2.00155,-87.76531,-44.25041,-1.72676,22.59609,88.43366,0
bike_v1,1763574006492,1.57538,5.11401,6.95276,-113.19823,-62.87872,26.94756,22.59609,88.43366,0
bike_v1,1763574006512,-1.39103,6.95037,4.0462,-109.70114,-35.65388,12.76674,22.59609,88.43366,0
bike_v1,1763574006532,2.98557,7.24964,15.67484,-71.99795,-58.38362,-18.9723,22.59609,88.43366,0
bike_v1,1763574006552,2.30801,7.61356,5.782,-113.81424,-24.43391,10.7839,22.59609,88.43366,0
bike_v1,1763574006571,-0.40941,5.25048,2.54025,-113.21798,-50.72707,21.76049,22.59609,88.43366,0
bike_v1,1763574006591,-2.25773,3.47638,5.01106,-81.84525,-63.89258,-9.15555,22.59609,88.43366,0
bike_v1,1763574006611,0.16041,2.50673,8.93037,-53.1089,-32.31364,-24.25392,22.59609,88.43366,0
bike_v1,1763574006631,4.81953,3.89776,13.89834,-93.75563,-15.67686,1.02906,22.59609,88.43366,0
bike_v1,1763574006651,3.52666,4.96079,11.9351,-142.18938,-14.84056,19.12501,22.59609,88.43366,0
bike_v1,1763574006672,0.36392,4.56095,8.88009,-127.14257,-21.73268,16.46169,22.59609,88.43366,0
bike_v1,1763574006691,0.55545,3.80678,6.94558,-94.93723,-27.1662,2.34675,22.59609,88.43366,0
bike_v1,1763574006711,1.05345,3.90255,4.59926,-99.06767,-28.64966,4.57235,22.59609,88.43366,0
bike_v1,1763574006731,1.43892,8.92319,9.69412,-108.04713,-39.59409,12.90092,22.59609,88.43366,0
bike_v1,1763574006751,1.86029,9.51456,4.53701,-101.28298,-42.31783,8.44287,22.59609,88.43366,0
bike_v1,1763574006772,1.53708,5.61201,8.66222,-109.56449,-62.73444,22.29492,22.59609,88.43366,0
bike_v1,1763574006791,1.55863,3.74453,11.47301,-107.18585,-32.53407,10.06218,22.59609,88.43366,0
bike_v1,1763574006811,1.51553,5.81312,7.73327,-113.34882,-17.92155,7.73635,22.59609,88.43366,0
bike_v1,1763574006831,1.64003,3.53624,2.52109,-106.93495,-36.41512,11.08803,22.59609,88.43366,0
bike_v1,1763574007210,0.72065,8.52815,8.69813,-99.32802,-39.57658,6.50079,22.59609,88.43366,0
bike_v1,1763574007230,0.95768,5.83706,5.66468,-96.09746,-44.33667,4.73623,22.59609,88.43366,0
bike_v1,1763574007251,0.51715,6.2345,0.9912,-101.92039,-45.45511,9.59579,22.59609,88.43366,0
bike_v1,1763574007271,-0.13168,4.87459,13.68765,-109.041,-79.83355,27.55281,22.59609,88.43366,0
bike_v1,1763574007290,1.41976,4.03662,13.76427,-88.38927,-19.60155,-0.55119,22.59609,88.43366,0
bike_v1,1763574007311,2.86825,4.67348,4.26168,-109.90623,-16.26305,5.88914,22.59609,88.43366,0
bike_v1,1763574007330,1.82438,4.18506,-4.46758,-128.74721,-42.29494,33.94188,22.59609,88.43366,0
bike_v1,1763574007351,-0.88825,4.59926,3.44765,-118.48731,-40.93315,22.21315,22.59609,88.43366,0
bike_v1,1763574007376,-1.25217,5.66229,14.17607,-74.54552,-52.25695,-14.44743,22.59609,88.43366,0
bike_v1,1763574007391,1.69031,5.62637,12.53125,-76.90277,-21.69646,-5.04782,22.59609,88.43366,0
bike_v1,1763574007410,2.81558,3.77805,7.45315,-107.75822,-23.98705,7.68211,22.59609,88.43366,0
bike_v1,1763574007430,1.00796,6.50505,8.53533,-129.20496,-25.37021,20.69509,22.59609,88.43366,0
bike_v1,1763574007450,0.32561,5.40611,4.80037,-100.28352,-37.12108,6.73501,22.59609,88.43366,0
bike_v1,1763574007474,1.07739,5.09007,2.27928,-94.59037,-48.3311,3.88045,22.59609,88.43366,0
bike_v1,1763574007491,0.44772,5.85861,12.51928,-111.67651,-63.65102,25.29959,22.59609,88.43366,0
bike_v1,1763574007510,1.24977,5.02064,14.83208,-94.67164,-25.064,2.04814,22.59609,88.43366,0
bike_v1,1763574007530,1.97043,8.02058,4.62799,-104.48837,-18.63943,4.81645,22.59609,88.43366,0
bike_v1,1763574007550,0.35913,5.5761,3.44765,-111.71593,-57.90666,23.06252,22.59609,88.43366,0
bike_v1,1763574007570,-0.37828,4.69264,5.6551,-95.84086,-58.13341,5.94686,22.59609,88.43366,0
bike_v1,1763574007591,1.65679,4.65193,9.33739,-84.48328,-39.62323,-3.82695,22.59609,88.43366,0
bike_v1,1763574007610,2.33914,5.71496,8.99023,-111.05974,-26.12993,10.06161,22.59609,88.43366,0
bike_v1,1763574007630,1.35033,5.09247,9.96467,-114.77457,-31.59996,14.58422,22.59609,88.43366,0
bike_v1,1763574007650,0.58179,5.92565,6.65828,-106.03079,-26.85873,7.71724,22.59609,88.43366,0
bike_v1,1763574007669,1.33118,3.37343,12.83053,-96.85169,-41.55986,4.99374,22.59609,88.43366,0
bike_v1,1763574007691,2.48518,4.66151,14.18325,-112.00675,-14.65567,5.92328,22.59609,88.43366,0
bike_v1,1763574007710,1.79086,7.2664,4.02705,-118.98787,-17.93839,9.93845,22.59609,88.43366,0
bike_v1,1763574007729,1.13485,7.12993,4.96079,-112.1957,-58.76187,23.97513,22.59609,88.43366,0
bike_v1,1763574007749,-0.40223,5.84903,5.42766,-103.30627,-54.48293,12.88551,22.59609,88.43366,0
bike_v1,1763574007768,-0.02634,3.4285,11.47301,-84.85397,-47.06175,-4.23826,22.59609,88.43366,0
bike_v1,1763574007790,2.37744,4.84586,9.88087,-89.54709,-16.63776,-0.13152,22.59609,88.43366,0
bike_v1,1763574007809,2.81319,5.7796,11.06121,-117.95454,-25.49277,13.52881,22.59609,88.43366,0
bike_v1,1763574007829,0.38786,7.46033,8.07325,-117.98208,-26.85719,14.26945,22.59609,88.43366,0
bike_v1,1763574007849,1.43413,6.24887,3.4692,-93.68498,-42.7075,2.75053,22.59609,88.43366,0
bike_v1,1763574008209,1.8148,5.87298,10.46745,-120.28075,-26.3188,15.36761,22.59609,88.43366,0
bike_v1,1763574008229,1.01514,7.28556,4.8291,-108.77466,-28.93483,9.83594,22.59609,88.43366,0
bike_v1,1763574008248,0.25618,6.02381,4.77404,-101.99197,-55.88945,11.87148,22.59609,88.43366,0
bike_v1,1763574008269,-0.52912,6.17704,7.75482,-93.40913,-51.5621,3.0716,22.59609,88.43366,0
bike_v1,1763574008289,1.33836,6.56011,5.28879,-84.207,-38.47397,-3.9033,22.59609,88.43366,0
bike_v1,1763574008308,1.90578,2.806,15.74667,-105.77982,-50.2525,14.2009,22.59609,88.43366,0
bike_v1,1763574008328,3.6344,5.91368,12.68448,-124.5229,-10.03217,6.90082,22.59609,88.43366,0
bike_v1,1763574008348,-0.00479,1.85311,9.73482,-123.51598,-24.14096,15.98824,22.59609,88.43366,0
bike_v1,1763574008369,-0.69911,6.74447,13.72117,-89.85018,-10.77782,-0.02818,22.59609,88.43366,0
bike_v1,1763574008394,2.36547,7.10599,8.31267,-83.63471,-26.14644,-2.91675,22.59609,88.43366,0
bike_v1,1763574008409,3.54102,5.21457,-0.25379,-111.94353,-39.42697,15.88435,22.59609,88.43366,0
bike_v1,1763574008428,-0.13647,5.09486,-5.40371,-147.01489,-55.75276,85.90062,22.59609,88.43366,0
bike_v1,1763574008448,-4.9536,4.83389,-10.83137,-88.08667,-43.30582,-1.44669,22.59609,88.43366,0
bike_v1,1763574008468,0.63925,0.64643,-5.04219,-41.95019,-22.09007,-24.57645,22.59609,88.43366,0
bike_v1,1763574008493,0.9481,7.89129,36.9545,-134.90927,-7.24837,7.22545,22.59609,88.43366,0
bike_v1,1763574008508,7.58722,3.64637,-3.40216,-96.95359,-12.05008,1.46966,22.59609,88.43366,0
bike_v1,1763574008528,1.20907,9.22007,17.55429,-160.22173,-23.67862,65.84823,22.59609,88.43366,0
bike_v1,1763574008547,-1.06063,4.72376,17.98285,-98.10879,-27.65411,3.94009,22.59609,88.43366,0
bike_v1,1763574008568,1.75974,4.17309,19.92455,-77.06252,-14.6936,-3.3754,22.59609,88.43366,0
bike_v1,1763574008594,4.80277,4.52265,13.93186,-113.18493,-11.78473,5.04727,22.59609,88.43366,0
bike_v1,1763574008608,1.33596,5.02064,14.25268,-138.10835,-17.06134,19.02075,22.59609,88.43366,0
bike_v1,1763574008628,-1.08697,4.15633,19.21347,-105.48653,-19.32689,5.35493,22.59609,88.43366,0
bike_v1,1763574008647,0.5363,10.16099,9.23444,-75.12143,-12.18747,-3.23795,22.59609,88.43366,0
bike_v1,1763574008668,3.4285,7.95114,5.02543,-93.98707,-47.68703,3.32379,22.59609,88.43366,0
bike_v1,1763574008690,2.53067,6.45477,-6.41167,-123.12035,-52.57983,34.30297,22.59609,88.43366,0
bike_v1,1763574008708,-1.01514,5.91368,-8.1355,-116.54305,-43.11943,21.53902,22.59609,88.43366,0
bike_v1,1763574008728,-4.89614,6.92643,-6.79714,-78.76405,-35.80309,-7.11255,22.59609,88.43366,0
bike_v1,1763574008746,-0.50996,4.97515,-12.27507,-47.90164,-39.58542,-35.76611,22.59609,88.43366,0
bike_v1,1763574008769,3.72538,3.9217,-9.26317,-83.84103,-22.04578,-2.37897,22.59609,88.43366,0
bike_v1,1763574008791,1.15161,4.79319,29.80542,-135.61343,-21.4444,21.90857,22.59609,88.43366,0
bike_v1,1763574008809,4.2952,-7.60638,-12.11705,-103.62428,-9.12917,2.21267,22.59609,88.43366,0
bike_v1,1763574008827,1.01035,0.44772,6.8139,122.52196,30.61148,19.51816,22.59609,88.43366,0
bike_v1,1763574008848,-0.14365,5.81312,19.70189,-156.20685,-3.71875,8.43427,22.59609,88.43366,0
bike_v1,1763574008867,1.39103,-1.47483,3.47638,-88.54425,-16.43849,-0.41775,22.59609,88.43366,0
bike_v1,1763574009287,-0.56743,24.62436,4.43406,-89.23449,-30.26025,-0.40432,22.59609,88.43366,0
bike_v1,1763574009305,11.66694,3.77326,11.57596,-84.77274,-79.7108,-7.29249,22.59609,88.43366,0
bike_v1,1763574009327,0.60573,1.13964,8.62152,-164.0443,-12.93002,45.22427,22.59609,88.43366,0
bike_v1,1763574009346,-1.75974,4.36224,5.34625,-118.14754,-7.51172,4.0189,22.59609,88.43366,0
bike_v1,1763574009366,1.84832,5.25048,12.05241,-64.25287,-37.77704,-18.21915,22.59609,88.43366,0
bike_v1,1763574009385,1.30723,4.43406,7.6399,-110.51823,-23.29688,8.71879,22.59609,88.43366,0
bike_v1,1763574009407,-0.77093,6.30872,3.72298,-108.06258,-29.77251,9.70964,22.59609,88.43366,0
bike_v1,1763574009426,1.0319,4.9153,13.4195,-78.77032,-58.92464,-11.69912,22.59609,88.43366,0
bike_v1,1763574009445,1.74298,3.00712,9.74201,-102.36229,-20.0623,4.39714,22.59609,88.43366,0
bike_v1,1763574009466,-0.02634,7.50822,3.41174,-120.97079,-16.90143,10.14368,22.59609,88.43366,0
bike_v1,1763574009486,1.66397,5.2864,14.66209,-89.61349,-65.56228,-0.44227,22.59609,88.43366,0
bike_v1,1763574009508,0.92416,3.31118,13.32373,-108.18518,-19.71002,6.47468,22.59609,88.43366,0
bike_v1,1763574009526,-0.10295,6.35182,6.7325,-105.90535,-13.92413,3.9678,22.59609,88.43366,0
bike_v1,1763574009546,0.39265,8.24084,-0.46208,-88.84171,-43.33015,-0.87608,22.59609,88.43366,0
bike_v1,1763574009566,2.49955,4.82671,16.08904,-115.19203,-85.79169,40.35593,22.59609,88.43366,0
bike_v1,1763574009586,-0.51715,8.9208,5.65032,-118.13795,-16.51213,8.83072,22.59609,88.43366,0
bike_v1,1763574009607,0.15083,6.43801,5.71257,-84.80721,-57.54224,-5.22945,22.59609,88.43366,0
bike_v1,1763574009626,-0.38786,7.74285,4.83868,-91.78964,-48.40685,1.51249,22.59609,88.43366,0
bike_v1,1763574009645,1.57538,5.14514,8.39407,-85.47552,-57.91529,-4.58294,22.59609,88.43366,0
bike_v1,1763574009665,-0.249,6.00466,11.11149,-108.88882,-31.06607,10.62952,22.59609,88.43366,0
bike_v1,1763574009685,1.63524,5.73411,8.52575,-87.41016,-28.3808,-1.28372,22.59609,88.43366,0
bike_v1,1763574009706,1.41018,5.85861,10.59913,-107.98497,-33.44572,10.85748,22.59609,88.43366,0
bike_v1,1763574009725,0.73023,3.62003,11.81778,-104.78253,-28.71906,7.57854,22.59609,88.43366,0
bike_v1,1763574009745,-1.54426,8.22648,8.34858,-101.7493,-17.00037,3.53586,22.59609,88.43366,0
bike_v1,1763574009765,1.78847,3.95522,9.35415,-76.63133,-44.09616,-10.47971,22.59609,88.43366,0
bike_v1,1763574009785,1.87945,5.97832,6.84023,-115.63765,-22.5535,10.82405,22.59609,88.43366,0
bike_v1,1763574009810,-0.03352,4.01747,6.98149,-110.95261,-40.12286,15.36367,22.59609,88.43366,0
bike_v1,1763574009825,1.22583,5.2026,11.84651,-89.47321,-29.9178,-0.27508,22.59609,88.43366,0
bike_v1,1763574009845,2.25534,4.09408,12.68209,-104.05538,-23.59738,5.90772,22.59609,88.43366,0
bike_v1,1763574009865,0.82839,7.04614,5.69102,-119.76524,-17.6322,10.08386,22.59609,88.43366,0
bike_v1,1763574010244,0.83558,4.88896,9.53132,-104.64768,-20.73062,5.41835,22.59609,88.43366,0
bike_v1,1763574010264,1.52271,9.13388,6.80193,-100.48716,-27.06596,5.01011,22.59609,88.43366,0
bike_v1,1763574010286,3.14598,3.53863,9.95988,-103.47723,-52.65187,12.61846,22.59609,88.43366,0
bike_v1,1763574010304,1.22104,9.0836,4.07972,-133.12538,-18.71584,17.52952,22.59609,88.43366,0
bike_v1,1763574010324,1.6496,3.08852,6.43561,-104.40276,-64.88211,16.66222,22.59609,88.43366,0
bike_v1,1763574010344,1.57778,8.39407,3.97198,-119.9686,-24.93286,14.37678,22.59609,88.43366,0
bike_v1,1763574010364,0.59616,5.02543,0.96965,-108.97224,-63.01691,21.66432,22.59609,88.43366,0
bike_v1,1763574010384,1.403,8.19775,13.69962,-112.24045,-77.23788,31.58382,22.59609,88.43366,0
bike_v1,1763574010404,0.1652,4.2138,5.30076,-100.7618,-30.76443,5.84737,22.59609,88.43366,0
bike_v1,1763574010427,1.34315,8.07325,9.40203,-92.65676,-38.4691,1.78506,22.59609,88.43366,0
bike_v1,1763574010444,3.94804,3.45962,11.12107,-101.3876,-40.36589,8.1301,22.59609,88.43366,0
bike_v1,1763574010465,1.22104,7.75721,12.7156,-140.10542,-16.33913,19.54514,22.59609,88.43366,0
bike_v1,1763574010484,2.41575,5.17626,5.00628,-99.94955,-31.26869,5.48513,22.59609,88.43366,0
bike_v1,1763574010504,0.99599,7.56807,4.67588,-120.94749,-42.95993,25.75937,22.59609,88.43366,0
bike_v1,1763574010527,1.8172,3.56018,12.20325,-101.76807,-57.71925,12.02461,22.59609,88.43366,0
bike_v1,1763574010544,1.55863,8.50181,8.34858,-117.75349,-16.09595,8.46974,22.59609,88.43366,0
bike_v1,1763574010564,0.97444,4.85065,4.51786,-103.21598,-45.03027,10.57501,22.59609,88.43366,0
bike_v1,1763574010584,1.43652,8.4252,6.05015,-104.7032,-46.38429,12.17146,22.59609,88.43366,0
bike_v1,1763574010605,-0.52433,4.80037,2.64799,-104.00018,-53.57023,13.35673,22.59609,88.43366,0
bike_v1,1763574010625,2.89698,5.35822,11.25275,-79.53693,-60.6496,-11.2003,22.59609,88.43366,0
bike_v1,1763574010643,2.71742,3.49314,13.73075,-120.2497,-24.75601,14.43711,22.59609,88.43366,0
bike_v1,1763574010663,0.67756,7.50582,4.40054,-128.62115,-14.01263,11.19461,22.59609,88.43366,0
bike_v1,1763574010683,0.69671,4.65433,4.47476,-98.39339,-59.32388,8.75319,22.59609,88.43366,0
bike_v1,1763574010703,1.60651,6.51941,14.61181,-100.94006,-45.78394,8.8498,22.59609,88.43366,0
bike_v1,1763574010726,1.66397,7.38372,7.54892,-104.69918,-23.91736,6.27424,22.59609,88.43366,0
bike_v1,1763574010744,0.52433,7.17782,2.42293,-105.88311,-43.68698,12.43064,22.59609,88.43366,0
bike_v1,1763574010764,-0.51715,3.97437,5.70778,-99.76557,-70.94654,12.2107,22.59609,88.43366,0
bike_v1,1763574010783,0.68235,5.74369,15.3205,-81.52396,-34.74008,-5.17709,22.59609,88.43366,0
bike_v1,1763574010803,0.29928,6.3183,13.09868,-97.07996,-20.53249,2.55017,22.59609,88.43366,0
bike_v1,1763574010825,2.6432,8.00382,4.36702,-92.91035,-25.74503,1.30885,22.59609,88.43366,0
bike_v1,1763574010843,0.3735,7.23049,1.84593,-118.48509,-57.47124,31.18497,22.59609,88.43366,0
bike_v1,1763574010863,2.06141,4.97276,5.4516,-98.62618,-75.40048,11.43849,22.59609,88.43366,0
bike_v1,1763574010883,1.07021,6.83305,6.6463,-117.10337,-40.47101,20.71306,22.59609,88.43366,0
bike_v1,1763574011243,0.77812,6.91685,11.17374,-143.60927,-13.58411,18.43128,22.59609,88.43366,0
bike_v1,1763574011262,-0.71347,5.7796,6.62236,-97.16319,-31.69664,3.98353,22.59609,88.43366,0
bike_v1,1763574011282,-0.79487,5.78439,7.99185,-81.45989,-40.94879,-6.14915,22.59609,88.43366,0
bike_v1,1763574011302,0.17957,9.13627,10.20169,-80.97539,-35.76268,-5.68,22.59609,88.43366,0
bike_v1,1763574011322,-0.43335,8.4228,9.03572,-91.38055,-41.84209,1.00839,22.59609,88.43366,0
bike_v1,1763574011342,-0.44772,5.94001,4.20182,-86.34262,-42.95651,-2.74579,22.59609,88.43366,0
bike_v1,1763574011361,0.44293,3.31597,-0.38786,-83.64069,-54.57271,-6.08207,22.59609,88.43366,0
bike_v1,1763574011382,2.33435,5.4109,16.69716,-121.4007,-79.93217,48.79214,22.59609,88.43366,0
bike_v1,1763574011402,2.04465,5.26006,10.8601,-114.09796,-17.79349,7.95865,22.59609,88.43366,0
bike_v1,1763574011424,0.20111,9.65821,8.20972,-112.72839,-25.45375,10.66236,22.59609,88.43366,0
bike_v1,1763574011442,-0.07422,7.72369,8.88009,-91.61974,-49.62616,1.40329,22.59609,88.43366,0
bike_v1,1763574011462,0.7853,7.65905,6.59603,-89.33108,-41.01498,-0.47887,22.59609,88.43366,0
bike_v1,1763574011481,2.97839,2.4373,5.19542,-97.87834,-49.06528,6.78946,22.59609,88.43366,0
bike_v1,1763574011502,1.56102,4.26168,15.4426,-143.4046,-22.14586,29.82443,22.59609,88.43366,0
bike_v1,1763574011521,0.76854,7.65666,10.62307,-110.60397,-15.35333,5.77215,22.59609,88.43366,0
bike_v1,1763574011542,1.73819,6.78517,0.20351,-96.60943,-35.71155,4.13792,22.59609,88.43366,0
bike_v1,1763574011562,1.84593,2.94966,5.46836,-137.80557,-75.53722,83.32221,22.59609,88.43366,0
bike_v1,1763574011581,-0.64643,8.99741,4.72376,-124.56898,-27.07028,18.65292,22.59609,88.43366,0
bike_v1,1763574011602,-0.91219,7.91284,2.58574,-82.84563,-62.08058,-7.79238,22.59609,88.43366,0
bike_v1,1763574011626,2.85868,2.57377,11.40598,-74.67072,-70.88799,-19.43171,22.59609,88.43366,0
bike_v1,1763574011642,1.15879,6.4835,8.24084,-138.73387,-12.34624,14.0702,22.59609,88.43366,0
bike_v1,1763574011662,1.20668,7.29513,4.35745,-101.9186,-37.92171,8.00422,22.59609,88.43366,0
bike_v1,1763574011681,-0.66798,8.33422,3.25372,-104.89099,-58.20984,15.47864,22.59609,88.43366,0
bike_v1,1763574011702,1.78129,3.67271,11.24796,-80.35559,-68.27039,-11.60151,22.59609,88.43366,0
bike_v1,1763574011722,-0.22984,4.51068,4.65672,-116.72279,-17.87466,8.99893,22.59609,88.43366,0
bike_v1,1763574011742,0.56024,7.94875,9.22486,-86.32988,-44.05246,-2.82567,22.59609,88.43366,0
bike_v1,1763574011760,2.26731,10.65659,5.14753,-94.88091,-40.69821,3.47541,22.59609,88.43366,0
bike_v1,1763574011780,-0.66319,7.15866,6.46434,-110.924,-62.17406,23.77182,22.59609,88.43366,0
bike_v1,1763574011800,2.92571,5.35583,4.11803,-83.00897,-47.7684,-5.85763,22.59609,88.43366,0
bike_v1,1763574011821,1.17555,4.01508,6.78038,-127.17224,-46.67479,35.39247,22.59609,88.43366,0
bike_v1,1763574011842,0.82121,8.12353,-2.08535,-108.00564,-30.26172,9.83592,22.59609,88.43366,0
bike_v1,1763574011861,1.49877,5.22175,15.24388,-106.07816,-74.57623,21.49454,22.59609,88.43366,0
bike_v1,1763574011881,2.36787,8.89925,7.41484,-106.6096,-18.82443,5.61524,22.59609,88.43366,0
bike_v1,1763574011900,-1.24977,4.45082,9.16261,-109.93723,-48.82536,17.71043,22.59609,88.43366,0
bike_v1,1763574012280,1.34554,6.46434,12.09551,-104.52389,-59.1688,15.32841,22.59609,88.43366,0
bike_v1,1763574012300,1.43892,5.21218,7.39569,-102.78391,-27.97569,6.34766,22.59609,88.43366,0
bike_v1,1763574012320,0.71826,6.91445,7.46751,-107.61567,-34.67499,11.00999,22.59609,88.43366,0
bike_v1,1763574012342,1.39582,8.48026,-0.25618,-97.33752,-42.66628,5.49408,22.59609,88.43366,0
bike_v1,1763574012360,2.42293,4.77404,18.67477,-134.67799,-80.49985,79.60005,22.59609,88.43366,0
bike_v1,1763574012380,3.11964,5.35104,8.29591,-117.45891,-14.22569,7.39246,22.59609,88.43366,0
bike_v1,1763574012399,-0.53151,4.65672,1.12767,-123.51263,-31.12126,20.60858,22.59609,88.43366,0
bike_v1,1763574012420,1.76453,8.43238,6.14113,-71.40571,-75.01278,-25.23627,22.59609,88.43366,0
bike_v1,1763574012446,0.7015,8.03015,4.68545,-106.87492,-52.84711,16.03091,22.59609,88.43366,0
bike_v1,1763574012463,1.4868,5.50666,9.04529,-98.14967,-59.46001,8.51502,22.59609,88.43366,0
bike_v1,1763574012480,-0.06225,6.29675,5.87298,-106.76042,-30.99435,9.33439,22.59609,88.43366,0
bike_v1,1763574012499,2.17394,4.80277,12.41633,-89.25963,-46.99274,-0.60727,22.59609,88.43366,0
bike_v1,1763574012520,0.88346,7.44597,4.99191,-115.46086,-20.85757,9.93107,22.59609,88.43366,0
bike_v1,1763574012547,-0.33519,7.78116,4.67109,-100.20489,-55.75154,10.0362,22.59609,88.43366,0
bike_v1,1763574012561,1.40061,5.93762,8.40365,-86.01776,-58.95831,-4.1044,22.59609,88.43366,0
bike_v1,1763574012579,1.95367,5.93762,11.41077,-105.18046,-34.87415,9.46232,22.59609,88.43366,0
bike_v1,1763574012599,1.57538,4.27604,5.53779,-109.68776,-27.1528,9.71556,22.59609,88.43366,0
bike_v1,1763574012619,1.84832,2.93529,-3.89537,-113.45446,-36.60089,15.87994,22.59609,88.43366,0
bike_v1,1763574012647,3.22978,4.76925,13.27824,-126.54646,-34.24641,25.38402,22.59609,88.43366,0
bike_v1,1763574012659,0.92416,8.9184,6.30633,-125.39712,-19.23907,13.67104,22.59609,88.43366,0
bike_v1,1763574012680,0.98402,12.78025,12.63181,-98.70554,-54.44788,8.33708,22.59609,88.43366,0
bike_v1,1763574012699,-1.18992,6.96473,-0.89304,-95.62224,-45.24802,4.45434,22.59609,88.43366,0
bike_v1,1763574012720,2.63123,5.34625,9.25598,-55.72852,-77.94211,-53.11166,22.59609,88.43366,0
bike_v1,1763574012746,-1.12288,6.28239,-4.02944,-118.64133,-29.05597,15.86903,22.59609,88.43366,0
bike_v1,1763574012762,1.0726,5.78439,17.77934,-74.55086,-56.34331,-15.57153,22.59609,88.43366,0
bike_v1,1763574012779,2.77967,7.90326,7.762,-100.86253,-17.99136,3.45239,22.59609,88.43366,0
bike_v1,1763574012799,1.32639,7.66623,17.51359,-114.22575,-43.78867,19.70307,22.59609,88.43366,0
bike_v1,1763574012819,0.25139,5.17626,-12.53365,-100.40755,-23.58034,4.33102,22.59609,88.43366,0
bike_v1,1763574012839,3.20584,4.18506,6.54096,-92.93181,-22.43605,1.14905,22.59609,88.43366,0
bike_v1,1763574012863,-1.18034,6.01663,7.59441,-131.14948,-29.87863,26.11026,22.59609,88.43366,0
bike_v1,1763574012880,3.90255,5.90171,11.35809,-76.93059,-38.05547,-8.83437,22.59609,88.43366,0
bike_v1,1763574012899,1.86508,5.40132,11.40837,-125.92663,-26.16978,18.96231,22.59609,88.43366,0
bike_v1,1763574012919,0.68714,5.5737,2.68151,-110.3415,-25.0443,9.28479,22.59609,88.43366,0
bike_v1,1763574013418,1.36469,6.43801,6.45956,-100.21926,-22.51579,4.05905,22.59609,88.43366,0
bike_v1,1763574013438,1.08936,2.63602,13.5847,-105.07825,-44.27887,11.92932,22.59609,88.43366,0
bike_v1,1763574013458,2.46842,6.45477,5.6982,-112.72446,-10.94708,4.58476,22.59609,88.43366,0
bike_v1,1763574013478,0.41659,10.6949,2.7677,-116.92977,-46.10776,23.42193,22.59609,88.43366,0
bike_v1,1763574013498,2.19309,7.63511,14.72195,-96.48241,-75.3345,8.55985,22.59609,88.43366,0
bike_v1,1763574013519,1.16598,4.91051,9.56005,-107.32832,-27.15604,8.47289,22.59609,88.43366,0
bike_v1,1763574013538,0.81882,7.97269,-11.50893,-104.4342,-27.0157,6.95365,22.59609,88.43366,0
bike_v1,1763574013565,0.73981,5.87058,21.804,-96.69961,-34.64421,4.06952,22.59609,88.43366,0
bike_v1,1763574013578,0.3735,5.41329,2.19069,-97.35221,-15.0609,1.9433,22.59609,88.43366,0
bike_v1,1763574013597,4.13957,7.51061,-5.55694,-98.13573,-67.6805,9.67543,22.59609,88.43366,0
bike_v1,1763574013618,2.27449,3.20105,15.64371,-127.79255,-47.30518,36.68381,22.59609,88.43366,0
bike_v1,1763574013638,3.13401,3.94325,10.39084,-125.8542,-11.4472,8.27246,22.59609,88.43366,0
bike_v1,1763574013664,0.31603,8.19775,2.07098,-130.04933,-19.96744,16.78399,22.59609,88.43366,0
bike_v1,1763574013679,1.403,3.54821,10.59195,-96.54153,-75.66469,8.67647,22.59609,88.43366,0
bike_v1,1763574013698,0.93134,7.08444,15.0284,-112.32939,-18.37082,7.54543,22.59609,88.43366,0
bike_v1,1763574013718,1.901,7.00543,9.38048,-98.01116,-25.19702,3.54621,22.59609,88.43366,0
bike_v1,1763574013738,-0.86431,11.76511,-6.33506,-107.56013,-36.20155,11.45609,22.59609,88.43366,0
bike_v1,1763574013763,0.22984,5.20978,8.52815,-82.79766,-61.47813,-7.76904,22.59609,88.43366,0
bike_v1,1763574013780,1.71185,6.34942,4.06057,-92.81374,-31.41121,1.54381,22.59609,88.43366,0
bike_v1,1763574013797,0.46208,11.1498,5.48512,-112.48125,-55.23839,22.85932,22.59609,88.43366,0
bike_v1,1763574013817,2.47321,7.94636,7.61117,-94.32135,-63.7249,4.81538,22.59609,88.43366,0
bike_v1,1763574013837,1.75974,7.13712,23.16151,-111.8924,-44.79683,18.00131,22.59609,88.43366,0
bike_v1,1763574013863,1.42694,6.75404,4.28802,-104.2721,-17.08009,4.34481,22.59609,88.43366,0
bike_v1,1763574013879,3.68468,8.4659,-10.71405,-108.13029,-56.21306,18.40615,22.59609,88.43366,0
bike_v1,1763574013897,-1.18992,4.63517,11.46823,-117.3018,-36.76761,18.97864,22.59609,88.43366,0
bike_v1,1763574013917,0.09098,8.63349,15.68441,-74.86501,-21.90097,-5.92369,22.59609,88.43366,0
bike_v1,1763574013937,3.38061,7.40766,11.29584,-90.66046,-28.8302,0.33235,22.59609,88.43366,0
bike_v1,1763574014438,2.5594,10.24,16.97968,-82.64446,-24.17714,-3.12099,22.59609,88.43366,0
bike_v1,1763574014457,0.18914,10.22324,4.4197,-105.54782,-30.8092,8.57185,22.59609,88.43366,0
bike_v1,1763574014477,2.04704,5.6575,13.07713,-92.10716,-66.60118,2.45049,22.59609,88.43366,0
bike_v1,1763574014496,-0.6201,4.27365,0.27773,-111.02794,-23.14285,8.89666,22.59609,88.43366,0
bike_v1,1763574014516,1.29766,3.33273,7.54892,-50.86851,-80.96637,-65.87351,22.59609,88.43366,0
bike_v1,1763574014538,0.4956,5.86101,6.6487,-112.52911,-23.51398,9.75381,22.59609,88.43366,0
bike_v1,1763574014562,4.42448,7.36217,18.28212,-95.89062,-41.31831,4.26299,22.59609,88.43366,0
bike_v1,1763574014581,-0.06225,11.20008,8.66222,-122.47536,-21.37532,13.60466,22.59609,88.43366,0
bike_v1,1763574014596,2.8491,4.20422,3.90255,-89.54877,-52.28065,-0.41174,22.59609,88.43366,0
bike_v1,1763574014616,0.45969,5.52821,-3.03585,-131.37019,-41.02641,36.13174,22.59609,88.43366,0
bike_v1,1763574014635,1.79565,3.94086,15.3588,-98.04066,-60.95155,8.61029,22.59609,88.43366,0
bike_v1,1763574014656,2.63602,9.40921,20.64041,-115.00442,-14.2975,6.66838,22.59609,88.43366,0
bike_v1,1763574014681,2.55222,5.53539,-7.35978,-106.65238,-24.33205,7.27793,22.59609,88.43366,0
bike_v1,1763574014696,3.2633,10.15141,5.37738,-118.38255,-35.39761,19.12549,22.59609,88.43366,0
bike_v1,1763574014715,0.85712,4.20661,4.8722,-118.22776,-58.21651,31.25175,22.59609,88.43366,0
bike_v1,1763574014736,3.09331,1.76692,5.78439,-103.88062,-40.37561,9.97746,22.59609,88.43366,0
bike_v1,1763574014756,0.40223,4.86981,-1.13725,-151.81728,-15.07571,28.13646,22.59609,88.43366,0
bike_v1,1763574014780,2.18591,5.28161,18.27015,-104.35896,-76.08751,19.47787,22.59609,88.43366,0
bike_v1,1763574014796,2.11887,10.99896,10.03649,-113.07421,-16.01543,6.82264,22.59609,88.43366,0
bike_v1,1763574014815,3.57454,5.65032,20.97081,-104.23313,-46.99716,11.92103,22.59609,88.43366,0
bike_v1,1763574014836,-0.4142,5.66947,-12.98376,-123.03671,-14.87468,9.67328,22.59609,88.43366,0
bike_v1,1763574014855,2.03986,2.22421,5.38456,-85.56876,-23.57822,-1.82718,22.59609,88.43366,0
bike_v1,1763574014880,1.85072,12.33493,-2.6432,-134.49063,-21.12068,20.74844,22.59609,88.43366,0
bike_v1,1763574014895,2.229,5.76284,19.90779,-114.91698,-75.34042,34.99899,22.59609,88.43366,0
bike_v1,1763574014915,2.1069,8.04212,11.93749,-111.70539,-16.04942,6.38859,22.59609,88.43366,0
bike_v1,1763574014935,1.652,6.04775,0.29928,-106.60651,-33.56158,10.00929,22.59609,88.43366,0
bike_v1,1763574015397,4.92487,1.51074,16.15129,-137.13348,-67.54703,72.77451,22.59609,88.43366,0
bike_v1,1763574015413,3.00233,4.0869,16.22311,-163.22217,-5.11264,16.95759,22.59609,88.43366,0
bike_v1,1763574015435,1.91057,4.25928,5.83467,-127.002,-13.91281,10.48482,22.59609,88.43366,0
bike_v1,1763574015454,0.826,6.30154,7.87214,-117.55307,-34.75095,18.13113,22.59609,88.43366,0
bike_v1,1763574015474,3.37822,4.11084,1.26653,-98.83797,-38.52386,5.98996,22.59609,88.43366,0
bike_v1,1763574015495,1.61609,5.73651,23.52303,-144.94452,-48.72858,69.44841,22.59609,88.43366,0
bike_v1,1763574015514,3.31597,6.20817,9.13627,-106.03562,-13.67406,3.93018,22.59609,88.43366,0
bike_v1,1763574015533,0.12929,6.99107,5.10923,-121.48782,-32.56793,19.94814,22.59609,88.43366,0
bike_v1,1763574015555,0.36392,2.91853,10.53449,-91.54246,-53.83112,1.44954,22.59609,88.43366,0
bike_v1,1763574015581,2.46603,2.83713,4.29041,-97.28526,-15.47636,1.97852,22.59609,88.43366,0
bike_v1,1763574015598,2.55222,5.4492,-0.98402,-135.06038,-29.82635,29.88929,22.59609,88.43366,0
bike_v1,1763574015614,-0.4118,6.76123,13.46499,-137.41197,-63.34465,68.91568,22.59609,88.43366,0
bike_v1,1763574015633,1.41976,5.79157,7.82665,-86.23956,-26.65202,-1.75174,22.59609,88.43366,0
bike_v1,1763574015655,3.04542,8.28633,10.35732,-105.91503,-36.05832,10.28171,22.59609,88.43366,0
bike_v1,1763574015674,2.14281,2.5594,13.38119,-113.59784,-37.50818,16.38524,22.59609,88.43366,0
bike_v1,1763574015697,1.31921,2.82755,15.25107,-130.38658,-10.69504,9.09787,22.59609,88.43366,0
bike_v1,1763574015714,1.652,3.16753,3.25372,-115.28598,-10.46518,4.94373,22.59609,88.43366,0
bike_v1,1763574015734,-0.90261,9.39485,-3.09091,-123.3127,-40.95911,26.9181,22.59609,88.43366,0
bike_v1,1763574015755,1.00556,4.41251,11.52329,-77.10065,-71.08126,-16.27893,22.59609,88.43366,0
bike_v1,1763574015780,2.52349,3.06458,9.14106,-103.4332,-20.88043,4.98721,22.59609,88.43366,0
bike_v1,1763574015799,1.37188,5.14514,4.28802,-130.75238,-17.90907,15.43274,22.59609,88.43366,0
bike_v1,1763574015814,-0.35434,3.52666,2.80122,-109.97369,-48.81326,17.74119,22.59609,88.43366,0
bike_v1,1763574015833,1.7334,4.96557,10.35013,-82.00321,-51.3183,-7.20938,22.59609,88.43366,0
bike_v1,1763574015853,2.00634,8.18578,6.73728,-110.57919,-25.32208,9.50745,22.59609,88.43366,0
bike_v1,1763574015874,0.84036,5.37738,12.01889,-108.5759,-49.34509,16.58336,22.59609,88.43366,0
bike_v1,1763574015897,-0.91459,4.52504,9.81383,-99.4413,-24.0522,3.99963,22.59609,88.43366,0
bike_v1,1763574015913,2.2721,5.10444,5.96874,-77.81647,-24.65979,-5.32421,22.59609,88.43366,0
bike_v1,1763574015933,0.60573,7.5154,-1.60172,-118.34386,-38.63342,20.84012,22.59609,88.43366,0
bike_v1,1763574015954,0.65841,6.27041,7.60638,-105.02731,-77.16396,20.71544,22.59609,88.43366,0
bike_v1,1763574016372,1.51553,3.10049,15.07389,-140.55093,-17.23788,20.94914,22.59609,88.43366,0
bike_v1,1763574016392,1.9417,2.29604,3.90734,-116.39903,-11.56612,5.74123,22.59609,88.43366,0
bike_v1,1763574016412,1.74298,3.98156,6.02621,-133.59357,-27.75464,26.42445,22.59609,88.43366,0
bike_v1,1763574016432,1.30723,7.36696,9.96467,-116.46613,-32.40298,16.13162,22.59609,88.43366,0
bike_v1,1763574016452,2.29843,8.77954,5.17148,-101.65199,-36.24243,7.47378,22.59609,88.43366,0
bike_v1,1763574016474,-0.40462,3.90973,9.73722,-112.732,-57.19441,23.96249,22.59609,88.43366,0
bike_v1,1763574016496,2.11887,0.23703,11.44668,-83.7876,-21.85959,-2.3795,22.59609,88.43366,0
bike_v1,1763574016513,1.88184,5.23612,13.52245,-173.65334,-1.16644,10.48719,22.59609,88.43366,0
bike_v1,1763574016531,2.66235,3.95043,-12.66772,-110.68539,-20.98285,7.92264,22.59609,88.43366,0
bike_v1,1763574016552,0.14365,4.76686,21.26769,-124.9673,-16.9713,11.869,22.59609,88.43366,0
bike_v1,1763574016572,-0.01915,1.97761,8.82742,-91.75464,-12.63298,0.387,22.59609,88.43366,0
bike_v1,1763574016592,0.26097,2.21464,5.37259,-89.43594,-12.62747,-0.12432,22.59609,88.43366,0
bike_v1,1763574016612,5.82749,10.59674,-19.73062,-97.08373,-22.37819,2.7809,22.59609,88.43366,0
bike_v1,1763574016632,-0.15562,5.55215,24.87815,-121.12356,-27.25185,16.45465,22.59609,88.43366,0
bike_v1,1763574016652,-0.84994,8.51139,28.34974,-88.36815,-12.58052,-0.3584,22.59609,88.43366,0
bike_v1,1763574016672,1.45328,5.12359,5.97114,-84.13041,-16.70415,-1.71725,22.59609,88.43366,0
bike_v1,1763574016692,4.71658,7.31907,15.37078,-108.95915,-39.8187,13.67893,22.59609,88.43366,0
bike_v1,1763574016712,3.31836,5.71257,1.1133,-124.87508,-24.47592,17.05882,22.59609,88.43366,0
bike_v1,1763574016732,1.63763,8.76996,5.79636,-140.69049,-58.50382,71.45351,22.59609,88.43366,0
bike_v1,1763574016752,-0.58658,3.88818,15.23191,-105.86334,-55.51849,15.77646,22.59609,88.43366,0
bike_v1,1763574016772,2.82995,4.57771,8.3007,-81.23868,-14.30968,-2.20536,22.59609,88.43366,0
bike_v1,1763574016794,3.06458,4.64475,10.34535,-124.33256,-27.56381,18.82572,22.59609,88.43366,0
bike_v1,1763574016812,0.4956,5.95917,2.20267,-125.31618,-23.29089,16.50075,22.59609,88.43366,0
bike_v1,1763574016832,1.33836,7.40766,2.04225,-100.3765,-69.24994,12.68038,22.59609,88.43366,0
bike_v1,1763574016851,0.9098,0.98641,7.01501,-114.8539,-71.75667,33.2382,22.59609,88.43366,0
bike_v1,1763574016872,1.84114,2.59053,9.991,-132.9491,-7.93851,7.3896,22.59609,88.43366,0
bike_v1,1763574016893,2.24337,8.41801,11.11867,-126.12569,-14.30515,10.44132,22.59609,88.43366,0
bike_v1,1763574016911,3.25372,6.55532,10.18254,-107.31923,-36.58098,11.40718,22.59609,88.43366,0
bike_v1,1763574016931,1.59454,3.14838,0.56982,-119.34644,-31.51807,17.72072,22.59609,88.43366,0
bike_v1,1763574016951,-0.35674,6.75644,9.05727,-138.72935,-61.72724,70.33527,22.59609,88.43366,0
bike_v1,1763574016971,3.22978,4.1276,15.09544,-86.48316,-36.70052,-2.25553,22.59609,88.43366,0
bike_v1,1763574017450,0.65122,2.30562,5.06374,-112.51353,-47.18356,19.55713,22.59609,88.43366,0
bike_v1,1763574017471,0.06704,1.25456,6.32069,-106.77953,-24.30392,7.32831,22.59609,88.43366,0
bike_v1,1763574017491,2.27689,4.47716,10.37168,-93.09843,-11.22581,0.60766,22.59609,88.43366,0
bike_v1,1763574017511,1.61609,6.83784,6.08845,-118.43945,-22.8618,12.38168,22.59609,88.43366,0
bike_v1,1763574017531,1.43413,8.38689,5.66708,-107.4305,-47.3475,14.86549,22.59609,88.43366,0
bike_v1,1763574017551,0.54827,7.04135,5.00628,-104.44685,-55.12323,14.20129,22.59609,88.43366,0
bike_v1,1763574017571,-0.76375,3.73495,9.16261,-96.55077,-54.42638,6.24995,22.59609,88.43366,0
bike_v1,1763574017591,2.26013,4.79559,14.04439,-77.83726,-22.10803,-4.76488,22.59609,88.43366,0
bike_v1,1763574017616,2.48997,2.06141,12.3876,-116.13792,-18.63008,9.14208,22.59609,88.43366,0
